Species,Subj_idx,Session,Block,Trial,Stim,Procedure,Duration_Set,Test_Duration,Response,Reference_Intervals,Response_Time,Condition,Sex,Age,anger,distress,fearfulness,sociability,activity,STAI
human,1,1,1,1,Visual,TB,0.4;0.6;0.8;1;1.2;1.4;1.6,0.4,S,0.4;1.6,0.754,threat,female,20,4,20,20,16,4,58
human,1,1,1,2,Visual,TB,0.4;0.6;0.8;1;1.2;1.4;1.6,0.4,S,0.4;1.6,0.901,threat,female,20,4,20,20,16,4,58
human,1,1,1,3,Visual,TB,0.4;0.6;0.8;1;1.2;1.4;1.6,0.4,S,0.4;1.6,0.638,threat,female,20,4,20,20,16,4,58
human,1,1,1,4,Visual,TB,0.4;0.6;0.8;1;1.2;1.4;1.6,0.4,S,0.4;1.6,0.58,threat,female,20,4,20,20,16,4,58
human,1,1,1,5,Visual,TB,0.4;0.6;0.8;1;1.2;1.4;1.6,0.4,S,0.4;1.6,0.542,threat,female,20,4,20,20,16,4,58
human,1,1,1,6,Visual,TB,0.4;0.6;0.8;1;1.2;1.4;1.6,0.4,S,0.4;1.6,0.56,threat,female,20,4,20,20,16,4,58
human,1,1,1,7,Visual,TB,0.4;0.6;0.8;1;1.2;1.4;1.6,0.4,S,0.4;1.6,0.65,neutral,female,20,4,20,20,16,4,58
human,1,1,1,8,Visual,TB,0.4;0.6;0.8;1;1.2;1.4;1.6,0.4,S,0.4;1.6,0.694,neutral,female,20,4,20,20,16,4,58
human,1,1,1,9,Visual,TB,0.4;0.6;0.8;1;1.2;1.4;1.6,0.4,S,0.4;1.6,0.888,neutral,female,20,4,20,20,16,4,58
human,1,1,1,10,Visual,TB,0.4;0.6;0.8;1;1.2;1.4;1.6,0.4,L,0.4;1.6,0.66,neutral,female,20,4,20,20,16,4,58
human,1,1,1,11,Visual,TB,0.4;0.6;0.8;1;1.2;1.4;1.6,0.4,S,0.4;1.6,0.751,neutral,female,20,4,20,20,16,4,58
human,1,1,1,12,Visual,TB,0.4;0.6;0.8;1;1.2;1.4;1.6,0.4,S,0.4;1.6,0.853,neutral,female,20,4,20,20,16,4,58
human,1,1,1,13,Visual,TB,0.4;0.6;0.8;1;1.2;1.4;1.6,0.4,S,0.4;1.6,0.547,neutral,female,20,4,20,20,16,4,58
human,1,1,1,14,Visual,TB,0.4;0.6;0.8;1;1.2;1.4;1.6,0.4,S,0.4;1.6,0.737,threat,female,20,4,20,20,16,4,58
human,1,1,1,15,Visual,TB,0.4;0.6;0.8;1;1.2;1.4;1.6,0.6,S,0.4;1.6,0.742,threat,female,20,4,20,20,16,4,58
human,1,1,1,16,Visual,TB,0.4;0.6;0.8;1;1.2;1.4;1.6,0.6,S,0.4;1.6,0.659,threat,female,20,4,20,20,16,4,58
human,1,1,1,17,Visual,TB,0.4;0.6;0.8;1;1.2;1.4;1.6,0.6,L,0.4;1.6,0.904,threat,female,20,4,20,20,16,4,58
human,1,1,1,18,Visual,TB,0.4;0.6;0.8;1;1.2;1.4;1.6,0.6,L,0.4;1.6,0.873,threat,female,20,4,20,20,16,4,58
human,1,1,1,19,Visual,TB,0.4;0.6;0.8;1;1.2;1.4;1.6,0.6,L,0.4;1.6,0.873,threat,female,20,4,20,20,16,4,58
human,1,1,1,20,Visual,TB,0.4;0.6;0.8;1;1.2;1.4;1.6,0.6,S,0.4;1.6,0.811,threat,female,20,4,20,20,16,4,58
human,1,1,1,21,Visual,TB,0.4;0.6;0.8;1;1.2;1.4;1.6,0.6,S,0.4;1.6,0.443,neutral,female,20,4,20,20,16,4,58
human,1,1,1,22,Visual,TB,0.4;0.6;0.8;1;1.2;1.4;1.6,0.6,S,0.4;1.6,0.551,neutral,female,20,4,20,20,16,4,58
human,1,1,1,23,Visual,TB,0.4;0.6;0.8;1;1.2;1.4;1.6,0.6,S,0.4;1.6,0.627,neutral,female,20,4,20,20,16,4,58
human,1,1,1,24,Visual,TB,0.4;0.6;0.8;1;1.2;1.4;1.6,0.6,S,0.4;1.6,1.401,neutral,female,20,4,20,20,16,4,58
human,1,1,1,25,Visual,TB,0.4;0.6;0.8;1;1.2;1.4;1.6,0.6,S,0.4;1.6,0.808,neutral,female,20,4,20,20,16,4,58
human,1,1,1,26,Visual,TB,0.4;0.6;0.8;1;1.2;1.4;1.6,0.6,S,0.4;1.6,0.415,neutral,female,20,4,20,20,16,4,58
human,1,1,1,27,Visual,TB,0.4;0.6;0.8;1;1.2;1.4;1.6,0.6,S,0.4;1.6,0.654,neutral,female,20,4,20,20,16,4,58
human,1,1,1,28,Visual,TB,0.4;0.6;0.8;1;1.2;1.4;1.6,0.6,L,0.4;1.6,0.851,threat,female,20,4,20,20,16,4,58
human,1,1,1,29,Visual,TB,0.4;0.6;0.8;1;1.2;1.4;1.6,0.8,L,0.4;1.6,0.53,threat,female,20,4,20,20,16,4,58
human,1,1,1,30,Visual,TB,0.4;0.6;0.8;1;1.2;1.4;1.6,0.8,S,0.4;1.6,0.6,threat,female,20,4,20,20,16,4,58
human,1,1,1,31,Visual,TB,0.4;0.6;0.8;1;1.2;1.4;1.6,0.8,S,0.4;1.6,0.409,threat,female,20,4,20,20,16,4,58
human,1,1,1,32,Visual,TB,0.4;0.6;0.8;1;1.2;1.4;1.6,0.8,S,0.4;1.6,1.225,threat,female,20,4,20,20,16,4,58
human,1,1,1,33,Visual,TB,0.4;0.6;0.8;1;1.2;1.4;1.6,0.8,L,0.4;1.6,0.493,threat,female,20,4,20,20,16,4,58
human,1,1,1,34,Visual,TB,0.4;0.6;0.8;1;1.2;1.4;1.6,0.8,L,0.4;1.6,0.616,threat,female,20,4,20,20,16,4,58
human,1,1,1,35,Visual,TB,0.4;0.6;0.8;1;1.2;1.4;1.6,0.8,S,0.4;1.6,1.074,neutral,female,20,4,20,20,16,4,58
human,1,1,1,36,Visual,TB,0.4;0.6;0.8;1;1.2;1.4;1.6,0.8,S,0.4;1.6,1.097,neutral,female,20,4,20,20,16,4,58
human,1,1,1,37,Visual,TB,0.4;0.6;0.8;1;1.2;1.4;1.6,0.8,S,0.4;1.6,0.437,neutral,female,20,4,20,20,16,4,58
human,1,1,1,38,Visual,TB,0.4;0.6;0.8;1;1.2;1.4;1.6,0.8,S,0.4;1.6,0.682,neutral,female,20,4,20,20,16,4,58
human,1,1,1,39,Visual,TB,0.4;0.6;0.8;1;1.2;1.4;1.6,0.8,S,0.4;1.6,0.698,neutral,female,20,4,20,20,16,4,58
human,1,1,1,40,Visual,TB,0.4;0.6;0.8;1;1.2;1.4;1.6,0.8,S,0.4;1.6,0.878,neutral,female,20,4,20,20,16,4,58
human,1,1,1,41,Visual,TB,0.4;0.6;0.8;1;1.2;1.4;1.6,0.8,S,0.4;1.6,0.424,neutral,female,20,4,20,20,16,4,58
human,1,1,1,42,Visual,TB,0.4;0.6;0.8;1;1.2;1.4;1.6,0.8,L,0.4;1.6,0.931,threat,female,20,4,20,20,16,4,58
human,1,1,1,43,Visual,TB,0.4;0.6;0.8;1;1.2;1.4;1.6,1,L,0.4;1.6,0.346,threat,female,20,4,20,20,16,4,58
human,1,1,1,44,Visual,TB,0.4;0.6;0.8;1;1.2;1.4;1.6,1,L,0.4;1.6,0.456,threat,female,20,4,20,20,16,4,58
human,1,1,1,45,Visual,TB,0.4;0.6;0.8;1;1.2;1.4;1.6,1,L,0.4;1.6,0.31,threat,female,20,4,20,20,16,4,58
human,1,1,1,46,Visual,TB,0.4;0.6;0.8;1;1.2;1.4;1.6,1,L,0.4;1.6,0.401,threat,female,20,4,20,20,16,4,58
human,1,1,1,47,Visual,TB,0.4;0.6;0.8;1;1.2;1.4;1.6,1,S,0.4;1.6,0.792,threat,female,20,4,20,20,16,4,58
human,1,1,1,48,Visual,TB,0.4;0.6;0.8;1;1.2;1.4;1.6,1,S,0.4;1.6,1.483,threat,female,20,4,20,20,16,4,58
human,1,1,1,49,Visual,TB,0.4;0.6;0.8;1;1.2;1.4;1.6,1,L,0.4;1.6,1.167,neutral,female,20,4,20,20,16,4,58
human,1,1,1,50,Visual,TB,0.4;0.6;0.8;1;1.2;1.4;1.6,1,S,0.4;1.6,0.636,neutral,female,20,4,20,20,16,4,58
human,1,1,1,51,Visual,TB,0.4;0.6;0.8;1;1.2;1.4;1.6,1,L,0.4;1.6,0.552,neutral,female,20,4,20,20,16,4,58
human,1,1,1,52,Visual,TB,0.4;0.6;0.8;1;1.2;1.4;1.6,1,S,0.4;1.6,0.671,neutral,female,20,4,20,20,16,4,58
human,1,1,1,53,Visual,TB,0.4;0.6;0.8;1;1.2;1.4;1.6,1,S,0.4;1.6,0.709,neutral,female,20,4,20,20,16,4,58
human,1,1,1,54,Visual,TB,0.4;0.6;0.8;1;1.2;1.4;1.6,1,S,0.4;1.6,1.138,neutral,female,20,4,20,20,16,4,58
human,1,1,1,55,Visual,TB,0.4;0.6;0.8;1;1.2;1.4;1.6,1,S,0.4;1.6,0.414,neutral,female,20,4,20,20,16,4,58
human,1,1,1,56,Visual,TB,0.4;0.6;0.8;1;1.2;1.4;1.6,1,L,0.4;1.6,0.332,threat,female,20,4,20,20,16,4,58
human,1,1,1,57,Visual,TB,0.4;0.6;0.8;1;1.2;1.4;1.6,1.2,L,0.4;1.6,0.55,threat,female,20,4,20,20,16,4,58
human,1,1,1,58,Visual,TB,0.4;0.6;0.8;1;1.2;1.4;1.6,1.2,L,0.4;1.6,0.512,threat,female,20,4,20,20,16,4,58
human,1,1,1,59,Visual,TB,0.4;0.6;0.8;1;1.2;1.4;1.6,1.2,L,0.4;1.6,0.471,threat,female,20,4,20,20,16,4,58
human,1,1,1,60,Visual,TB,0.4;0.6;0.8;1;1.2;1.4;1.6,1.2,L,0.4;1.6,0.53,threat,female,20,4,20,20,16,4,58
human,1,1,1,61,Visual,TB,0.4;0.6;0.8;1;1.2;1.4;1.6,1.2,L,0.4;1.6,0.354,threat,female,20,4,20,20,16,4,58
human,1,1,1,62,Visual,TB,0.4;0.6;0.8;1;1.2;1.4;1.6,1.2,L,0.4;1.6,0.536,threat,female,20,4,20,20,16,4,58
human,1,1,1,63,Visual,TB,0.4;0.6;0.8;1;1.2;1.4;1.6,1.2,L,0.4;1.6,0.581,neutral,female,20,4,20,20,16,4,58
human,1,1,1,64,Visual,TB,0.4;0.6;0.8;1;1.2;1.4;1.6,1.2,S,0.4;1.6,0.644,neutral,female,20,4,20,20,16,4,58
human,1,1,1,65,Visual,TB,0.4;0.6;0.8;1;1.2;1.4;1.6,1.2,L,0.4;1.6,0.885,neutral,female,20,4,20,20,16,4,58
human,1,1,1,66,Visual,TB,0.4;0.6;0.8;1;1.2;1.4;1.6,1.2,S,0.4;1.6,0.579,neutral,female,20,4,20,20,16,4,58
human,1,1,1,67,Visual,TB,0.4;0.6;0.8;1;1.2;1.4;1.6,1.2,L,0.4;1.6,0.34,neutral,female,20,4,20,20,16,4,58
human,1,1,1,68,Visual,TB,0.4;0.6;0.8;1;1.2;1.4;1.6,1.2,S,0.4;1.6,0.729,neutral,female,20,4,20,20,16,4,58
human,1,1,1,69,Visual,TB,0.4;0.6;0.8;1;1.2;1.4;1.6,1.2,L,0.4;1.6,0.824,neutral,female,20,4,20,20,16,4,58
human,1,1,1,70,Visual,TB,0.4;0.6;0.8;1;1.2;1.4;1.6,1.2,L,0.4;1.6,0.69,threat,female,20,4,20,20,16,4,58
human,1,1,1,71,Visual,TB,0.4;0.6;0.8;1;1.2;1.4;1.6,1.4,L,0.4;1.6,0.523,threat,female,20,4,20,20,16,4,58
human,1,1,1,72,Visual,TB,0.4;0.6;0.8;1;1.2;1.4;1.6,1.4,L,0.4;1.6,0.531,threat,female,20,4,20,20,16,4,58
human,1,1,1,73,Visual,TB,0.4;0.6;0.8;1;1.2;1.4;1.6,1.4,L,0.4;1.6,0.453,threat,female,20,4,20,20,16,4,58
human,1,1,1,74,Visual,TB,0.4;0.6;0.8;1;1.2;1.4;1.6,1.4,L,0.4;1.6,0.59,threat,female,20,4,20,20,16,4,58
human,1,1,1,75,Visual,TB,0.4;0.6;0.8;1;1.2;1.4;1.6,1.4,L,0.4;1.6,0.884,threat,female,20,4,20,20,16,4,58
human,1,1,1,76,Visual,TB,0.4;0.6;0.8;1;1.2;1.4;1.6,1.4,L,0.4;1.6,1.042,threat,female,20,4,20,20,16,4,58
human,1,1,1,77,Visual,TB,0.4;0.6;0.8;1;1.2;1.4;1.6,1.4,L,0.4;1.6,1.224,threat,female,20,4,20,20,16,4,58
human,1,1,1,78,Visual,TB,0.4;0.6;0.8;1;1.2;1.4;1.6,1.4,L,0.4;1.6,0.544,neutral,female,20,4,20,20,16,4,58
human,1,1,1,79,Visual,TB,0.4;0.6;0.8;1;1.2;1.4;1.6,1.4,L,0.4;1.6,0.651,neutral,female,20,4,20,20,16,4,58
human,1,1,1,80,Visual,TB,0.4;0.6;0.8;1;1.2;1.4;1.6,1.4,S,0.4;1.6,0.405,neutral,female,20,4,20,20,16,4,58
human,1,1,1,81,Visual,TB,0.4;0.6;0.8;1;1.2;1.4;1.6,1.4,L,0.4;1.6,0.622,neutral,female,20,4,20,20,16,4,58
human,1,1,1,82,Visual,TB,0.4;0.6;0.8;1;1.2;1.4;1.6,1.4,S,0.4;1.6,0.682,neutral,female,20,4,20,20,16,4,58
human,1,1,1,83,Visual,TB,0.4;0.6;0.8;1;1.2;1.4;1.6,1.4,L,0.4;1.6,0.787,neutral,female,20,4,20,20,16,4,58
human,1,1,1,84,Visual,TB,0.4;0.6;0.8;1;1.2;1.4;1.6,1.4,S,0.4;1.6,1.06,neutral,female,20,4,20,20,16,4,58
human,1,1,1,85,Visual,TB,0.4;0.6;0.8;1;1.2;1.4;1.6,1.6,L,0.4;1.6,0.492,threat,female,20,4,20,20,16,4,58
human,1,1,1,86,Visual,TB,0.4;0.6;0.8;1;1.2;1.4;1.6,1.6,L,0.4;1.6,0.893,threat,female,20,4,20,20,16,4,58
human,1,1,1,87,Visual,TB,0.4;0.6;0.8;1;1.2;1.4;1.6,1.6,L,0.4;1.6,0.509,threat,female,20,4,20,20,16,4,58
human,1,1,1,88,Visual,TB,0.4;0.6;0.8;1;1.2;1.4;1.6,1.6,L,0.4;1.6,0.457,threat,female,20,4,20,20,16,4,58
human,1,1,1,89,Visual,TB,0.4;0.6;0.8;1;1.2;1.4;1.6,1.6,L,0.4;1.6,0.515,threat,female,20,4,20,20,16,4,58
human,1,1,1,90,Visual,TB,0.4;0.6;0.8;1;1.2;1.4;1.6,1.6,L,0.4;1.6,0.668,neutral,female,20,4,20,20,16,4,58
human,1,1,1,91,Visual,TB,0.4;0.6;0.8;1;1.2;1.4;1.6,1.6,L,0.4;1.6,0.759,neutral,female,20,4,20,20,16,4,58
human,1,1,1,92,Visual,TB,0.4;0.6;0.8;1;1.2;1.4;1.6,1.6,L,0.4;1.6,0.894,neutral,female,20,4,20,20,16,4,58
human,1,1,1,93,Visual,TB,0.4;0.6;0.8;1;1.2;1.4;1.6,1.6,L,0.4;1.6,0.817,neutral,female,20,4,20,20,16,4,58
human,1,1,1,94,Visual,TB,0.4;0.6;0.8;1;1.2;1.4;1.6,1.6,S,0.4;1.6,0.562,neutral,female,20,4,20,20,16,4,58
human,1,1,1,95,Visual,TB,0.4;0.6;0.8;1;1.2;1.4;1.6,1.6,L,0.4;1.6,0.613,neutral,female,20,4,20,20,16,4,58
human,1,1,1,96,Visual,TB,0.4;0.6;0.8;1;1.2;1.4;1.6,1.6,S,0.4;1.6,0.9,neutral,female,20,4,20,20,16,4,58
human,1,1,1,97,Visual,TB,0.4;0.6;0.8;1;1.2;1.4;1.6,1.6,L,0.4;1.6,0.303,threat,female,20,4,20,20,16,4,58
human,1,1,1,98,Visual,TB,0.4;0.6;0.8;1;1.2;1.4;1.6,1.6,L,0.4;1.6,0.479,threat,female,20,4,20,20,16,4,58
human,10,1,1,1,Visual,TB,0.4;0.6;0.8;1;1.2;1.4;1.6,0.4,S,0.4;1.6,0.454,threat,female,27,18,14,10,16,12,53
human,10,1,1,2,Visual,TB,0.4;0.6;0.8;1;1.2;1.4;1.6,0.4,S,0.4;1.6,0.526,threat,female,27,18,14,10,16,12,53
human,10,1,1,3,Visual,TB,0.4;0.6;0.8;1;1.2;1.4;1.6,0.4,S,0.4;1.6,0.42,threat,female,27,18,14,10,16,12,53
human,10,1,1,4,Visual,TB,0.4;0.6;0.8;1;1.2;1.4;1.6,0.4,S,0.4;1.6,0.504,threat,female,27,18,14,10,16,12,53
human,10,1,1,5,Visual,TB,0.4;0.6;0.8;1;1.2;1.4;1.6,0.4,S,0.4;1.6,0.592,threat,female,27,18,14,10,16,12,53
human,10,1,1,6,Visual,TB,0.4;0.6;0.8;1;1.2;1.4;1.6,0.4,S,0.4;1.6,0.522,threat,female,27,18,14,10,16,12,53
human,10,1,1,7,Visual,TB,0.4;0.6;0.8;1;1.2;1.4;1.6,0.4,S,0.4;1.6,0.629,neutral,female,27,18,14,10,16,12,53
human,10,1,1,8,Visual,TB,0.4;0.6;0.8;1;1.2;1.4;1.6,0.4,S,0.4;1.6,0.491,neutral,female,27,18,14,10,16,12,53
human,10,1,1,9,Visual,TB,0.4;0.6;0.8;1;1.2;1.4;1.6,0.4,S,0.4;1.6,0.845,neutral,female,27,18,14,10,16,12,53
human,10,1,1,10,Visual,TB,0.4;0.6;0.8;1;1.2;1.4;1.6,0.4,S,0.4;1.6,0.559,neutral,female,27,18,14,10,16,12,53
human,10,1,1,11,Visual,TB,0.4;0.6;0.8;1;1.2;1.4;1.6,0.4,S,0.4;1.6,0.529,neutral,female,27,18,14,10,16,12,53
human,10,1,1,12,Visual,TB,0.4;0.6;0.8;1;1.2;1.4;1.6,0.4,S,0.4;1.6,0.485,neutral,female,27,18,14,10,16,12,53
human,10,1,1,13,Visual,TB,0.4;0.6;0.8;1;1.2;1.4;1.6,0.4,S,0.4;1.6,0.502,neutral,female,27,18,14,10,16,12,53
human,10,1,1,14,Visual,TB,0.4;0.6;0.8;1;1.2;1.4;1.6,0.4,S,0.4;1.6,0.608,threat,female,27,18,14,10,16,12,53
human,10,1,1,15,Visual,TB,0.4;0.6;0.8;1;1.2;1.4;1.6,0.6,S,0.4;1.6,0.552,threat,female,27,18,14,10,16,12,53
human,10,1,1,16,Visual,TB,0.4;0.6;0.8;1;1.2;1.4;1.6,0.6,S,0.4;1.6,0.395,threat,female,27,18,14,10,16,12,53
human,10,1,1,17,Visual,TB,0.4;0.6;0.8;1;1.2;1.4;1.6,0.6,S,0.4;1.6,0.501,threat,female,27,18,14,10,16,12,53
human,10,1,1,18,Visual,TB,0.4;0.6;0.8;1;1.2;1.4;1.6,0.6,S,0.4;1.6,0.521,threat,female,27,18,14,10,16,12,53
human,10,1,1,19,Visual,TB,0.4;0.6;0.8;1;1.2;1.4;1.6,0.6,S,0.4;1.6,0.404,threat,female,27,18,14,10,16,12,53
human,10,1,1,20,Visual,TB,0.4;0.6;0.8;1;1.2;1.4;1.6,0.6,S,0.4;1.6,0.558,threat,female,27,18,14,10,16,12,53
human,10,1,1,21,Visual,TB,0.4;0.6;0.8;1;1.2;1.4;1.6,0.6,S,0.4;1.6,0.805,neutral,female,27,18,14,10,16,12,53
human,10,1,1,22,Visual,TB,0.4;0.6;0.8;1;1.2;1.4;1.6,0.6,S,0.4;1.6,0.762,neutral,female,27,18,14,10,16,12,53
human,10,1,1,23,Visual,TB,0.4;0.6;0.8;1;1.2;1.4;1.6,0.6,S,0.4;1.6,0.493,neutral,female,27,18,14,10,16,12,53
human,10,1,1,24,Visual,TB,0.4;0.6;0.8;1;1.2;1.4;1.6,0.6,S,0.4;1.6,0.531,neutral,female,27,18,14,10,16,12,53
human,10,1,1,25,Visual,TB,0.4;0.6;0.8;1;1.2;1.4;1.6,0.6,S,0.4;1.6,0.659,neutral,female,27,18,14,10,16,12,53
human,10,1,1,26,Visual,TB,0.4;0.6;0.8;1;1.2;1.4;1.6,0.6,S,0.4;1.6,0.562,neutral,female,27,18,14,10,16,12,53
human,10,1,1,27,Visual,TB,0.4;0.6;0.8;1;1.2;1.4;1.6,0.6,S,0.4;1.6,0.533,neutral,female,27,18,14,10,16,12,53
human,10,1,1,28,Visual,TB,0.4;0.6;0.8;1;1.2;1.4;1.6,0.6,S,0.4;1.6,0.515,threat,female,27,18,14,10,16,12,53
human,10,1,1,29,Visual,TB,0.4;0.6;0.8;1;1.2;1.4;1.6,0.8,L,0.4;1.6,1.324,threat,female,27,18,14,10,16,12,53
human,10,1,1,30,Visual,TB,0.4;0.6;0.8;1;1.2;1.4;1.6,0.8,S,0.4;1.6,0.623,threat,female,27,18,14,10,16,12,53
human,10,1,1,31,Visual,TB,0.4;0.6;0.8;1;1.2;1.4;1.6,0.8,S,0.4;1.6,0.461,threat,female,27,18,14,10,16,12,53
human,10,1,1,32,Visual,TB,0.4;0.6;0.8;1;1.2;1.4;1.6,0.8,L,0.4;1.6,0.836,threat,female,27,18,14,10,16,12,53
human,10,1,1,33,Visual,TB,0.4;0.6;0.8;1;1.2;1.4;1.6,0.8,S,0.4;1.6,0.467,threat,female,27,18,14,10,16,12,53
human,10,1,1,34,Visual,TB,0.4;0.6;0.8;1;1.2;1.4;1.6,0.8,S,0.4;1.6,0.558,threat,female,27,18,14,10,16,12,53
human,10,1,1,35,Visual,TB,0.4;0.6;0.8;1;1.2;1.4;1.6,0.8,S,0.4;1.6,0.541,neutral,female,27,18,14,10,16,12,53
human,10,1,1,36,Visual,TB,0.4;0.6;0.8;1;1.2;1.4;1.6,0.8,S,0.4;1.6,0.676,neutral,female,27,18,14,10,16,12,53
human,10,1,1,37,Visual,TB,0.4;0.6;0.8;1;1.2;1.4;1.6,0.8,L,0.4;1.6,1.096,neutral,female,27,18,14,10,16,12,53
human,10,1,1,38,Visual,TB,0.4;0.6;0.8;1;1.2;1.4;1.6,0.8,S,0.4;1.6,0.511,neutral,female,27,18,14,10,16,12,53
human,10,1,1,39,Visual,TB,0.4;0.6;0.8;1;1.2;1.4;1.6,0.8,S,0.4;1.6,0.605,neutral,female,27,18,14,10,16,12,53
human,10,1,1,40,Visual,TB,0.4;0.6;0.8;1;1.2;1.4;1.6,0.8,S,0.4;1.6,0.548,neutral,female,27,18,14,10,16,12,53
human,10,1,1,41,Visual,TB,0.4;0.6;0.8;1;1.2;1.4;1.6,0.8,L,0.4;1.6,0.523,neutral,female,27,18,14,10,16,12,53
human,10,1,1,42,Visual,TB,0.4;0.6;0.8;1;1.2;1.4;1.6,0.8,S,0.4;1.6,0.598,threat,female,27,18,14,10,16,12,53
human,10,1,1,43,Visual,TB,0.4;0.6;0.8;1;1.2;1.4;1.6,1,S,0.4;1.6,0.693,threat,female,27,18,14,10,16,12,53
human,10,1,1,44,Visual,TB,0.4;0.6;0.8;1;1.2;1.4;1.6,1,S,0.4;1.6,0.818,threat,female,27,18,14,10,16,12,53
human,10,1,1,45,Visual,TB,0.4;0.6;0.8;1;1.2;1.4;1.6,1,L,0.4;1.6,1.256,threat,female,27,18,14,10,16,12,53
human,10,1,1,46,Visual,TB,0.4;0.6;0.8;1;1.2;1.4;1.6,1,L,0.4;1.6,0.651,threat,female,27,18,14,10,16,12,53
human,10,1,1,47,Visual,TB,0.4;0.6;0.8;1;1.2;1.4;1.6,1,S,0.4;1.6,0.982,threat,female,27,18,14,10,16,12,53
human,10,1,1,48,Visual,TB,0.4;0.6;0.8;1;1.2;1.4;1.6,1,L,0.4;1.6,0.68,threat,female,27,18,14,10,16,12,53
human,10,1,1,49,Visual,TB,0.4;0.6;0.8;1;1.2;1.4;1.6,1,S,0.4;1.6,1.134,neutral,female,27,18,14,10,16,12,53
human,10,1,1,50,Visual,TB,0.4;0.6;0.8;1;1.2;1.4;1.6,1,S,0.4;1.6,0.78,neutral,female,27,18,14,10,16,12,53
human,10,1,1,51,Visual,TB,0.4;0.6;0.8;1;1.2;1.4;1.6,1,L,0.4;1.6,0.827,neutral,female,27,18,14,10,16,12,53
human,10,1,1,52,Visual,TB,0.4;0.6;0.8;1;1.2;1.4;1.6,1,L,0.4;1.6,0.935,neutral,female,27,18,14,10,16,12,53
human,10,1,1,53,Visual,TB,0.4;0.6;0.8;1;1.2;1.4;1.6,1,S,0.4;1.6,0.355,neutral,female,27,18,14,10,16,12,53
human,10,1,1,54,Visual,TB,0.4;0.6;0.8;1;1.2;1.4;1.6,1,S,0.4;1.6,0.499,neutral,female,27,18,14,10,16,12,53
human,10,1,1,55,Visual,TB,0.4;0.6;0.8;1;1.2;1.4;1.6,1,L,0.4;1.6,0.612,neutral,female,27,18,14,10,16,12,53
human,10,1,1,56,Visual,TB,0.4;0.6;0.8;1;1.2;1.4;1.6,1,L,0.4;1.6,1.52,threat,female,27,18,14,10,16,12,53
human,10,1,1,57,Visual,TB,0.4;0.6;0.8;1;1.2;1.4;1.6,1.2,S,0.4;1.6,0.68,threat,female,27,18,14,10,16,12,53
human,10,1,1,58,Visual,TB,0.4;0.6;0.8;1;1.2;1.4;1.6,1.2,L,0.4;1.6,0.599,threat,female,27,18,14,10,16,12,53
human,10,1,1,59,Visual,TB,0.4;0.6;0.8;1;1.2;1.4;1.6,1.2,L,0.4;1.6,0.601,threat,female,27,18,14,10,16,12,53
human,10,1,1,60,Visual,TB,0.4;0.6;0.8;1;1.2;1.4;1.6,1.2,L,0.4;1.6,0.758,threat,female,27,18,14,10,16,12,53
human,10,1,1,61,Visual,TB,0.4;0.6;0.8;1;1.2;1.4;1.6,1.2,S,0.4;1.6,0.417,threat,female,27,18,14,10,16,12,53
human,10,1,1,62,Visual,TB,0.4;0.6;0.8;1;1.2;1.4;1.6,1.2,S,0.4;1.6,0.78,threat,female,27,18,14,10,16,12,53
human,10,1,1,63,Visual,TB,0.4;0.6;0.8;1;1.2;1.4;1.6,1.2,L,0.4;1.6,0.416,neutral,female,27,18,14,10,16,12,53
human,10,1,1,64,Visual,TB,0.4;0.6;0.8;1;1.2;1.4;1.6,1.2,S,0.4;1.6,2.139,neutral,female,27,18,14,10,16,12,53
human,10,1,1,65,Visual,TB,0.4;0.6;0.8;1;1.2;1.4;1.6,1.2,L,0.4;1.6,0.527,neutral,female,27,18,14,10,16,12,53
human,10,1,1,66,Visual,TB,0.4;0.6;0.8;1;1.2;1.4;1.6,1.2,L,0.4;1.6,0.971,neutral,female,27,18,14,10,16,12,53
human,10,1,1,67,Visual,TB,0.4;0.6;0.8;1;1.2;1.4;1.6,1.2,L,0.4;1.6,0.644,neutral,female,27,18,14,10,16,12,53
human,10,1,1,68,Visual,TB,0.4;0.6;0.8;1;1.2;1.4;1.6,1.2,S,0.4;1.6,0.529,neutral,female,27,18,14,10,16,12,53
human,10,1,1,69,Visual,TB,0.4;0.6;0.8;1;1.2;1.4;1.6,1.2,S,0.4;1.6,0.876,neutral,female,27,18,14,10,16,12,53
human,10,1,1,70,Visual,TB,0.4;0.6;0.8;1;1.2;1.4;1.6,1.2,L,0.4;1.6,0.395,threat,female,27,18,14,10,16,12,53
human,10,1,1,71,Visual,TB,0.4;0.6;0.8;1;1.2;1.4;1.6,1.4,L,0.4;1.6,0.511,threat,female,27,18,14,10,16,12,53
human,10,1,1,72,Visual,TB,0.4;0.6;0.8;1;1.2;1.4;1.6,1.4,L,0.4;1.6,0.481,threat,female,27,18,14,10,16,12,53
human,10,1,1,73,Visual,TB,0.4;0.6;0.8;1;1.2;1.4;1.6,1.4,L,0.4;1.6,0.599,threat,female,27,18,14,10,16,12,53
human,10,1,1,74,Visual,TB,0.4;0.6;0.8;1;1.2;1.4;1.6,1.4,L,0.4;1.6,0.555,threat,female,27,18,14,10,16,12,53
human,10,1,1,75,Visual,TB,0.4;0.6;0.8;1;1.2;1.4;1.6,1.4,L,0.4;1.6,0.496,threat,female,27,18,14,10,16,12,53
human,10,1,1,76,Visual,TB,0.4;0.6;0.8;1;1.2;1.4;1.6,1.4,L,0.4;1.6,0.408,threat,female,27,18,14,10,16,12,53
human,10,1,1,77,Visual,TB,0.4;0.6;0.8;1;1.2;1.4;1.6,1.4,L,0.4;1.6,0.521,threat,female,27,18,14,10,16,12,53
human,10,1,1,78,Visual,TB,0.4;0.6;0.8;1;1.2;1.4;1.6,1.4,L,0.4;1.6,0.979,neutral,female,27,18,14,10,16,12,53
human,10,1,1,79,Visual,TB,0.4;0.6;0.8;1;1.2;1.4;1.6,1.4,L,0.4;1.6,0.519,neutral,female,27,18,14,10,16,12,53
human,10,1,1,80,Visual,TB,0.4;0.6;0.8;1;1.2;1.4;1.6,1.4,L,0.4;1.6,0.415,neutral,female,27,18,14,10,16,12,53
human,10,1,1,81,Visual,TB,0.4;0.6;0.8;1;1.2;1.4;1.6,1.4,L,0.4;1.6,0.56,neutral,female,27,18,14,10,16,12,53
human,10,1,1,82,Visual,TB,0.4;0.6;0.8;1;1.2;1.4;1.6,1.4,L,0.4;1.6,0.573,neutral,female,27,18,14,10,16,12,53
human,10,1,1,83,Visual,TB,0.4;0.6;0.8;1;1.2;1.4;1.6,1.4,L,0.4;1.6,0.524,neutral,female,27,18,14,10,16,12,53
human,10,1,1,84,Visual,TB,0.4;0.6;0.8;1;1.2;1.4;1.6,1.4,S,0.4;1.6,0.86,neutral,female,27,18,14,10,16,12,53
human,10,1,1,85,Visual,TB,0.4;0.6;0.8;1;1.2;1.4;1.6,1.6,L,0.4;1.6,0.406,threat,female,27,18,14,10,16,12,53
human,10,1,1,86,Visual,TB,0.4;0.6;0.8;1;1.2;1.4;1.6,1.6,S,0.4;1.6,0.812,threat,female,27,18,14,10,16,12,53
human,10,1,1,87,Visual,TB,0.4;0.6;0.8;1;1.2;1.4;1.6,1.6,L,0.4;1.6,0.497,threat,female,27,18,14,10,16,12,53
human,10,1,1,88,Visual,TB,0.4;0.6;0.8;1;1.2;1.4;1.6,1.6,L,0.4;1.6,0.728,threat,female,27,18,14,10,16,12,53
human,10,1,1,89,Visual,TB,0.4;0.6;0.8;1;1.2;1.4;1.6,1.6,L,0.4;1.6,0.372,threat,female,27,18,14,10,16,12,53
human,10,1,1,90,Visual,TB,0.4;0.6;0.8;1;1.2;1.4;1.6,1.6,L,0.4;1.6,0.294,neutral,female,27,18,14,10,16,12,53
human,10,1,1,91,Visual,TB,0.4;0.6;0.8;1;1.2;1.4;1.6,1.6,L,0.4;1.6,0.465,neutral,female,27,18,14,10,16,12,53
human,10,1,1,92,Visual,TB,0.4;0.6;0.8;1;1.2;1.4;1.6,1.6,L,0.4;1.6,0.517,neutral,female,27,18,14,10,16,12,53
human,10,1,1,93,Visual,TB,0.4;0.6;0.8;1;1.2;1.4;1.6,1.6,L,0.4;1.6,0.733,neutral,female,27,18,14,10,16,12,53
human,10,1,1,94,Visual,TB,0.4;0.6;0.8;1;1.2;1.4;1.6,1.6,L,0.4;1.6,0.58,neutral,female,27,18,14,10,16,12,53
human,10,1,1,95,Visual,TB,0.4;0.6;0.8;1;1.2;1.4;1.6,1.6,L,0.4;1.6,0.581,neutral,female,27,18,14,10,16,12,53
human,10,1,1,96,Visual,TB,0.4;0.6;0.8;1;1.2;1.4;1.6,1.6,L,0.4;1.6,0.551,neutral,female,27,18,14,10,16,12,53
human,10,1,1,97,Visual,TB,0.4;0.6;0.8;1;1.2;1.4;1.6,1.6,L,0.4;1.6,0.508,threat,female,27,18,14,10,16,12,53
human,10,1,1,98,Visual,TB,0.4;0.6;0.8;1;1.2;1.4;1.6,1.6,L,0.4;1.6,0.562,threat,female,27,18,14,10,16,12,53
human,11,1,1,1,Visual,TB,0.4;0.6;0.8;1;1.2;1.4;1.6,0.4,S,0.4;1.6,0.416,threat,male,30,12,10,8,14,13,37
human,11,1,1,2,Visual,TB,0.4;0.6;0.8;1;1.2;1.4;1.6,0.4,S,0.4;1.6,0.468,threat,male,30,12,10,8,14,13,37
human,11,1,1,3,Visual,TB,0.4;0.6;0.8;1;1.2;1.4;1.6,0.4,S,0.4;1.6,0.766,threat,male,30,12,10,8,14,13,37
human,11,1,1,4,Visual,TB,0.4;0.6;0.8;1;1.2;1.4;1.6,0.4,S,0.4;1.6,0.485,threat,male,30,12,10,8,14,13,37
human,11,1,1,5,Visual,TB,0.4;0.6;0.8;1;1.2;1.4;1.6,0.4,S,0.4;1.6,0.626,threat,male,30,12,10,8,14,13,37
human,11,1,1,6,Visual,TB,0.4;0.6;0.8;1;1.2;1.4;1.6,0.4,S,0.4;1.6,0.697,threat,male,30,12,10,8,14,13,37
human,11,1,1,7,Visual,TB,0.4;0.6;0.8;1;1.2;1.4;1.6,0.4,S,0.4;1.6,0.746,neutral,male,30,12,10,8,14,13,37
human,11,1,1,8,Visual,TB,0.4;0.6;0.8;1;1.2;1.4;1.6,0.4,S,0.4;1.6,0.678,neutral,male,30,12,10,8,14,13,37
human,11,1,1,9,Visual,TB,0.4;0.6;0.8;1;1.2;1.4;1.6,0.4,S,0.4;1.6,0.709,neutral,male,30,12,10,8,14,13,37
human,11,1,1,10,Visual,TB,0.4;0.6;0.8;1;1.2;1.4;1.6,0.4,S,0.4;1.6,2.026,neutral,male,30,12,10,8,14,13,37
human,11,1,1,11,Visual,TB,0.4;0.6;0.8;1;1.2;1.4;1.6,0.4,S,0.4;1.6,0.718,neutral,male,30,12,10,8,14,13,37
human,11,1,1,12,Visual,TB,0.4;0.6;0.8;1;1.2;1.4;1.6,0.4,S,0.4;1.6,0.659,neutral,male,30,12,10,8,14,13,37
human,11,1,1,13,Visual,TB,0.4;0.6;0.8;1;1.2;1.4;1.6,0.4,S,0.4;1.6,0.588,neutral,male,30,12,10,8,14,13,37
human,11,1,1,14,Visual,TB,0.4;0.6;0.8;1;1.2;1.4;1.6,0.4,S,0.4;1.6,0.645,threat,male,30,12,10,8,14,13,37
human,11,1,1,15,Visual,TB,0.4;0.6;0.8;1;1.2;1.4;1.6,0.6,S,0.4;1.6,0.586,threat,male,30,12,10,8,14,13,37
human,11,1,1,16,Visual,TB,0.4;0.6;0.8;1;1.2;1.4;1.6,0.6,S,0.4;1.6,0.555,threat,male,30,12,10,8,14,13,37
human,11,1,1,17,Visual,TB,0.4;0.6;0.8;1;1.2;1.4;1.6,0.6,S,0.4;1.6,0.771,threat,male,30,12,10,8,14,13,37
human,11,1,1,18,Visual,TB,0.4;0.6;0.8;1;1.2;1.4;1.6,0.6,S,0.4;1.6,0.668,threat,male,30,12,10,8,14,13,37
human,11,1,1,19,Visual,TB,0.4;0.6;0.8;1;1.2;1.4;1.6,0.6,S,0.4;1.6,0.789,threat,male,30,12,10,8,14,13,37
human,11,1,1,20,Visual,TB,0.4;0.6;0.8;1;1.2;1.4;1.6,0.6,S,0.4;1.6,0.808,threat,male,30,12,10,8,14,13,37
human,11,1,1,21,Visual,TB,0.4;0.6;0.8;1;1.2;1.4;1.6,0.6,S,0.4;1.6,0.497,neutral,male,30,12,10,8,14,13,37
human,11,1,1,22,Visual,TB,0.4;0.6;0.8;1;1.2;1.4;1.6,0.6,S,0.4;1.6,0.68,neutral,male,30,12,10,8,14,13,37
human,11,1,1,23,Visual,TB,0.4;0.6;0.8;1;1.2;1.4;1.6,0.6,S,0.4;1.6,0.607,neutral,male,30,12,10,8,14,13,37
human,11,1,1,24,Visual,TB,0.4;0.6;0.8;1;1.2;1.4;1.6,0.6,S,0.4;1.6,1.85,neutral,male,30,12,10,8,14,13,37
human,11,1,1,25,Visual,TB,0.4;0.6;0.8;1;1.2;1.4;1.6,0.6,S,0.4;1.6,1.02,neutral,male,30,12,10,8,14,13,37
human,11,1,1,26,Visual,TB,0.4;0.6;0.8;1;1.2;1.4;1.6,0.6,S,0.4;1.6,0.827,neutral,male,30,12,10,8,14,13,37
human,11,1,1,27,Visual,TB,0.4;0.6;0.8;1;1.2;1.4;1.6,0.6,S,0.4;1.6,0.835,neutral,male,30,12,10,8,14,13,37
human,11,1,1,28,Visual,TB,0.4;0.6;0.8;1;1.2;1.4;1.6,0.6,S,0.4;1.6,0.733,threat,male,30,12,10,8,14,13,37
human,11,1,1,29,Visual,TB,0.4;0.6;0.8;1;1.2;1.4;1.6,0.8,S,0.4;1.6,0.913,threat,male,30,12,10,8,14,13,37
human,11,1,1,30,Visual,TB,0.4;0.6;0.8;1;1.2;1.4;1.6,0.8,S,0.4;1.6,0.486,threat,male,30,12,10,8,14,13,37
human,11,1,1,31,Visual,TB,0.4;0.6;0.8;1;1.2;1.4;1.6,0.8,S,0.4;1.6,0.54,threat,male,30,12,10,8,14,13,37
human,11,1,1,32,Visual,TB,0.4;0.6;0.8;1;1.2;1.4;1.6,0.8,S,0.4;1.6,0.943,threat,male,30,12,10,8,14,13,37
human,11,1,1,33,Visual,TB,0.4;0.6;0.8;1;1.2;1.4;1.6,0.8,S,0.4;1.6,0.581,threat,male,30,12,10,8,14,13,37
human,11,1,1,34,Visual,TB,0.4;0.6;0.8;1;1.2;1.4;1.6,0.8,S,0.4;1.6,0.493,threat,male,30,12,10,8,14,13,37
human,11,1,1,35,Visual,TB,0.4;0.6;0.8;1;1.2;1.4;1.6,0.8,S,0.4;1.6,0.509,neutral,male,30,12,10,8,14,13,37
human,11,1,1,36,Visual,TB,0.4;0.6;0.8;1;1.2;1.4;1.6,0.8,S,0.4;1.6,0.742,neutral,male,30,12,10,8,14,13,37
human,11,1,1,37,Visual,TB,0.4;0.6;0.8;1;1.2;1.4;1.6,0.8,S,0.4;1.6,0.91,neutral,male,30,12,10,8,14,13,37
human,11,1,1,38,Visual,TB,0.4;0.6;0.8;1;1.2;1.4;1.6,0.8,S,0.4;1.6,0.589,neutral,male,30,12,10,8,14,13,37
human,11,1,1,39,Visual,TB,0.4;0.6;0.8;1;1.2;1.4;1.6,0.8,S,0.4;1.6,0.636,neutral,male,30,12,10,8,14,13,37
human,11,1,1,40,Visual,TB,0.4;0.6;0.8;1;1.2;1.4;1.6,0.8,S,0.4;1.6,0.816,neutral,male,30,12,10,8,14,13,37
human,11,1,1,41,Visual,TB,0.4;0.6;0.8;1;1.2;1.4;1.6,0.8,S,0.4;1.6,0.543,neutral,male,30,12,10,8,14,13,37
human,11,1,1,42,Visual,TB,0.4;0.6;0.8;1;1.2;1.4;1.6,0.8,S,0.4;1.6,0.768,threat,male,30,12,10,8,14,13,37
human,11,1,1,43,Visual,TB,0.4;0.6;0.8;1;1.2;1.4;1.6,1,L,0.4;1.6,0.941,threat,male,30,12,10,8,14,13,37
human,11,1,1,44,Visual,TB,0.4;0.6;0.8;1;1.2;1.4;1.6,1,S,0.4;1.6,0.7,threat,male,30,12,10,8,14,13,37
human,11,1,1,45,Visual,TB,0.4;0.6;0.8;1;1.2;1.4;1.6,1,L,0.4;1.6,0.587,threat,male,30,12,10,8,14,13,37
human,11,1,1,46,Visual,TB,0.4;0.6;0.8;1;1.2;1.4;1.6,1,L,0.4;1.6,0.372,threat,male,30,12,10,8,14,13,37
human,11,1,1,47,Visual,TB,0.4;0.6;0.8;1;1.2;1.4;1.6,1,L,0.4;1.6,1.136,threat,male,30,12,10,8,14,13,37
human,11,1,1,48,Visual,TB,0.4;0.6;0.8;1;1.2;1.4;1.6,1,L,0.4;1.6,0.352,threat,male,30,12,10,8,14,13,37
human,11,1,1,49,Visual,TB,0.4;0.6;0.8;1;1.2;1.4;1.6,1,S,0.4;1.6,0.614,neutral,male,30,12,10,8,14,13,37
human,11,1,1,50,Visual,TB,0.4;0.6;0.8;1;1.2;1.4;1.6,1,L,0.4;1.6,0.592,neutral,male,30,12,10,8,14,13,37
human,11,1,1,51,Visual,TB,0.4;0.6;0.8;1;1.2;1.4;1.6,1,S,0.4;1.6,0.808,neutral,male,30,12,10,8,14,13,37
human,11,1,1,52,Visual,TB,0.4;0.6;0.8;1;1.2;1.4;1.6,1,S,0.4;1.6,0.777,neutral,male,30,12,10,8,14,13,37
human,11,1,1,53,Visual,TB,0.4;0.6;0.8;1;1.2;1.4;1.6,1,L,0.4;1.6,0.749,neutral,male,30,12,10,8,14,13,37
human,11,1,1,54,Visual,TB,0.4;0.6;0.8;1;1.2;1.4;1.6,1,L,0.4;1.6,1.023,neutral,male,30,12,10,8,14,13,37
human,11,1,1,55,Visual,TB,0.4;0.6;0.8;1;1.2;1.4;1.6,1,L,0.4;1.6,0.556,neutral,male,30,12,10,8,14,13,37
human,11,1,1,56,Visual,TB,0.4;0.6;0.8;1;1.2;1.4;1.6,1,L,0.4;1.6,0.728,threat,male,30,12,10,8,14,13,37
human,11,1,1,57,Visual,TB,0.4;0.6;0.8;1;1.2;1.4;1.6,1.2,L,0.4;1.6,0.48,threat,male,30,12,10,8,14,13,37
human,11,1,1,58,Visual,TB,0.4;0.6;0.8;1;1.2;1.4;1.6,1.2,L,0.4;1.6,0.592,threat,male,30,12,10,8,14,13,37
human,11,1,1,59,Visual,TB,0.4;0.6;0.8;1;1.2;1.4;1.6,1.2,S,0.4;1.6,0.725,threat,male,30,12,10,8,14,13,37
human,11,1,1,60,Visual,TB,0.4;0.6;0.8;1;1.2;1.4;1.6,1.2,L,0.4;1.6,0.82,threat,male,30,12,10,8,14,13,37
human,11,1,1,61,Visual,TB,0.4;0.6;0.8;1;1.2;1.4;1.6,1.2,L,0.4;1.6,0.48,threat,male,30,12,10,8,14,13,37
human,11,1,1,62,Visual,TB,0.4;0.6;0.8;1;1.2;1.4;1.6,1.2,S,0.4;1.6,0.653,threat,male,30,12,10,8,14,13,37
human,11,1,1,63,Visual,TB,0.4;0.6;0.8;1;1.2;1.4;1.6,1.2,L,0.4;1.6,0.393,neutral,male,30,12,10,8,14,13,37
human,11,1,1,64,Visual,TB,0.4;0.6;0.8;1;1.2;1.4;1.6,1.2,L,0.4;1.6,0.426,neutral,male,30,12,10,8,14,13,37
human,11,1,1,65,Visual,TB,0.4;0.6;0.8;1;1.2;1.4;1.6,1.2,L,0.4;1.6,0.512,neutral,male,30,12,10,8,14,13,37
human,11,1,1,66,Visual,TB,0.4;0.6;0.8;1;1.2;1.4;1.6,1.2,L,0.4;1.6,0.547,neutral,male,30,12,10,8,14,13,37
human,11,1,1,67,Visual,TB,0.4;0.6;0.8;1;1.2;1.4;1.6,1.2,L,0.4;1.6,0.569,neutral,male,30,12,10,8,14,13,37
human,11,1,1,68,Visual,TB,0.4;0.6;0.8;1;1.2;1.4;1.6,1.2,L,0.4;1.6,0.387,neutral,male,30,12,10,8,14,13,37
human,11,1,1,69,Visual,TB,0.4;0.6;0.8;1;1.2;1.4;1.6,1.2,L,0.4;1.6,0.533,neutral,male,30,12,10,8,14,13,37
human,11,1,1,70,Visual,TB,0.4;0.6;0.8;1;1.2;1.4;1.6,1.2,L,0.4;1.6,0.549,threat,male,30,12,10,8,14,13,37
human,11,1,1,71,Visual,TB,0.4;0.6;0.8;1;1.2;1.4;1.6,1.4,S,0.4;1.6,1.211,threat,male,30,12,10,8,14,13,37
human,11,1,1,72,Visual,TB,0.4;0.6;0.8;1;1.2;1.4;1.6,1.4,S,0.4;1.6,0.784,threat,male,30,12,10,8,14,13,37
human,11,1,1,73,Visual,TB,0.4;0.6;0.8;1;1.2;1.4;1.6,1.4,L,0.4;1.6,0.557,threat,male,30,12,10,8,14,13,37
human,11,1,1,74,Visual,TB,0.4;0.6;0.8;1;1.2;1.4;1.6,1.4,L,0.4;1.6,0.479,threat,male,30,12,10,8,14,13,37
human,11,1,1,75,Visual,TB,0.4;0.6;0.8;1;1.2;1.4;1.6,1.4,L,0.4;1.6,0.342,threat,male,30,12,10,8,14,13,37
human,11,1,1,76,Visual,TB,0.4;0.6;0.8;1;1.2;1.4;1.6,1.4,L,0.4;1.6,0.494,threat,male,30,12,10,8,14,13,37
human,11,1,1,77,Visual,TB,0.4;0.6;0.8;1;1.2;1.4;1.6,1.4,L,0.4;1.6,0.725,threat,male,30,12,10,8,14,13,37
human,11,1,1,78,Visual,TB,0.4;0.6;0.8;1;1.2;1.4;1.6,1.4,L,0.4;1.6,0.618,neutral,male,30,12,10,8,14,13,37
human,11,1,1,79,Visual,TB,0.4;0.6;0.8;1;1.2;1.4;1.6,1.4,L,0.4;1.6,0.529,neutral,male,30,12,10,8,14,13,37
human,11,1,1,80,Visual,TB,0.4;0.6;0.8;1;1.2;1.4;1.6,1.4,L,0.4;1.6,0.433,neutral,male,30,12,10,8,14,13,37
human,11,1,1,81,Visual,TB,0.4;0.6;0.8;1;1.2;1.4;1.6,1.4,L,0.4;1.6,0.493,neutral,male,30,12,10,8,14,13,37
human,11,1,1,82,Visual,TB,0.4;0.6;0.8;1;1.2;1.4;1.6,1.4,L,0.4;1.6,0.226,neutral,male,30,12,10,8,14,13,37
human,11,1,1,83,Visual,TB,0.4;0.6;0.8;1;1.2;1.4;1.6,1.4,S,0.4;1.6,0.6,neutral,male,30,12,10,8,14,13,37
human,11,1,1,84,Visual,TB,0.4;0.6;0.8;1;1.2;1.4;1.6,1.4,S,0.4;1.6,1.186,neutral,male,30,12,10,8,14,13,37
human,11,1,1,85,Visual,TB,0.4;0.6;0.8;1;1.2;1.4;1.6,1.6,L,0.4;1.6,0.514,threat,male,30,12,10,8,14,13,37
human,11,1,1,86,Visual,TB,0.4;0.6;0.8;1;1.2;1.4;1.6,1.6,L,0.4;1.6,0.505,threat,male,30,12,10,8,14,13,37
human,11,1,1,87,Visual,TB,0.4;0.6;0.8;1;1.2;1.4;1.6,1.6,L,0.4;1.6,0.365,threat,male,30,12,10,8,14,13,37
human,11,1,1,88,Visual,TB,0.4;0.6;0.8;1;1.2;1.4;1.6,1.6,L,0.4;1.6,0.43,threat,male,30,12,10,8,14,13,37
human,11,1,1,89,Visual,TB,0.4;0.6;0.8;1;1.2;1.4;1.6,1.6,L,0.4;1.6,0.437,threat,male,30,12,10,8,14,13,37
human,11,1,1,90,Visual,TB,0.4;0.6;0.8;1;1.2;1.4;1.6,1.6,L,0.4;1.6,0.405,neutral,male,30,12,10,8,14,13,37
human,11,1,1,91,Visual,TB,0.4;0.6;0.8;1;1.2;1.4;1.6,1.6,L,0.4;1.6,0.522,neutral,male,30,12,10,8,14,13,37
human,11,1,1,92,Visual,TB,0.4;0.6;0.8;1;1.2;1.4;1.6,1.6,L,0.4;1.6,0.388,neutral,male,30,12,10,8,14,13,37
human,11,1,1,93,Visual,TB,0.4;0.6;0.8;1;1.2;1.4;1.6,1.6,L,0.4;1.6,0.86,neutral,male,30,12,10,8,14,13,37
human,11,1,1,94,Visual,TB,0.4;0.6;0.8;1;1.2;1.4;1.6,1.6,L,0.4;1.6,0.718,neutral,male,30,12,10,8,14,13,37
human,11,1,1,95,Visual,TB,0.4;0.6;0.8;1;1.2;1.4;1.6,1.6,L,0.4;1.6,0.867,neutral,male,30,12,10,8,14,13,37
human,11,1,1,96,Visual,TB,0.4;0.6;0.8;1;1.2;1.4;1.6,1.6,L,0.4;1.6,0.255,neutral,male,30,12,10,8,14,13,37
human,11,1,1,97,Visual,TB,0.4;0.6;0.8;1;1.2;1.4;1.6,1.6,L,0.4;1.6,0.405,threat,male,30,12,10,8,14,13,37
human,11,1,1,98,Visual,TB,0.4;0.6;0.8;1;1.2;1.4;1.6,1.6,L,0.4;1.6,0.834,threat,male,30,12,10,8,14,13,37
human,12,1,1,1,Visual,TB,0.4;0.6;0.8;1;1.2;1.4;1.6,0.4,S,0.4;1.6,0.487,threat,female,21,8,11,13,10,15,60
human,12,1,1,2,Visual,TB,0.4;0.6;0.8;1;1.2;1.4;1.6,0.4,S,0.4;1.6,0.532,threat,female,21,8,11,13,10,15,60
human,12,1,1,3,Visual,TB,0.4;0.6;0.8;1;1.2;1.4;1.6,0.4,S,0.4;1.6,0.549,threat,female,21,8,11,13,10,15,60
human,12,1,1,4,Visual,TB,0.4;0.6;0.8;1;1.2;1.4;1.6,0.4,S,0.4;1.6,0.751,threat,female,21,8,11,13,10,15,60
human,12,1,1,5,Visual,TB,0.4;0.6;0.8;1;1.2;1.4;1.6,0.4,S,0.4;1.6,0.53,threat,female,21,8,11,13,10,15,60
human,12,1,1,6,Visual,TB,0.4;0.6;0.8;1;1.2;1.4;1.6,0.4,S,0.4;1.6,0.556,threat,female,21,8,11,13,10,15,60
human,12,1,1,7,Visual,TB,0.4;0.6;0.8;1;1.2;1.4;1.6,0.4,S,0.4;1.6,0.475,neutral,female,21,8,11,13,10,15,60
human,12,1,1,8,Visual,TB,0.4;0.6;0.8;1;1.2;1.4;1.6,0.4,S,0.4;1.6,0.564,neutral,female,21,8,11,13,10,15,60
human,12,1,1,9,Visual,TB,0.4;0.6;0.8;1;1.2;1.4;1.6,0.4,S,0.4;1.6,0.825,neutral,female,21,8,11,13,10,15,60
human,12,1,1,10,Visual,TB,0.4;0.6;0.8;1;1.2;1.4;1.6,0.4,S,0.4;1.6,0.71,neutral,female,21,8,11,13,10,15,60
human,12,1,1,11,Visual,TB,0.4;0.6;0.8;1;1.2;1.4;1.6,0.4,S,0.4;1.6,0.591,neutral,female,21,8,11,13,10,15,60
human,12,1,1,12,Visual,TB,0.4;0.6;0.8;1;1.2;1.4;1.6,0.4,L,0.4;1.6,0.787,neutral,female,21,8,11,13,10,15,60
human,12,1,1,13,Visual,TB,0.4;0.6;0.8;1;1.2;1.4;1.6,0.4,S,0.4;1.6,0.656,neutral,female,21,8,11,13,10,15,60
human,12,1,1,14,Visual,TB,0.4;0.6;0.8;1;1.2;1.4;1.6,0.4,S,0.4;1.6,0.617,threat,female,21,8,11,13,10,15,60
human,12,1,1,15,Visual,TB,0.4;0.6;0.8;1;1.2;1.4;1.6,0.6,L,0.4;1.6,0.495,threat,female,21,8,11,13,10,15,60
human,12,1,1,16,Visual,TB,0.4;0.6;0.8;1;1.2;1.4;1.6,0.6,S,0.4;1.6,0.431,threat,female,21,8,11,13,10,15,60
human,12,1,1,17,Visual,TB,0.4;0.6;0.8;1;1.2;1.4;1.6,0.6,L,0.4;1.6,0.507,threat,female,21,8,11,13,10,15,60
human,12,1,1,18,Visual,TB,0.4;0.6;0.8;1;1.2;1.4;1.6,0.6,S,0.4;1.6,0.566,threat,female,21,8,11,13,10,15,60
human,12,1,1,19,Visual,TB,0.4;0.6;0.8;1;1.2;1.4;1.6,0.6,L,0.4;1.6,0.424,threat,female,21,8,11,13,10,15,60
human,12,1,1,20,Visual,TB,0.4;0.6;0.8;1;1.2;1.4;1.6,0.6,S,0.4;1.6,0.673,threat,female,21,8,11,13,10,15,60
human,12,1,1,21,Visual,TB,0.4;0.6;0.8;1;1.2;1.4;1.6,0.6,S,0.4;1.6,0.652,neutral,female,21,8,11,13,10,15,60
human,12,1,1,22,Visual,TB,0.4;0.6;0.8;1;1.2;1.4;1.6,0.6,S,0.4;1.6,0.64,neutral,female,21,8,11,13,10,15,60
human,12,1,1,23,Visual,TB,0.4;0.6;0.8;1;1.2;1.4;1.6,0.6,S,0.4;1.6,0.592,neutral,female,21,8,11,13,10,15,60
human,12,1,1,24,Visual,TB,0.4;0.6;0.8;1;1.2;1.4;1.6,0.6,S,0.4;1.6,0.596,neutral,female,21,8,11,13,10,15,60
human,12,1,1,25,Visual,TB,0.4;0.6;0.8;1;1.2;1.4;1.6,0.6,L,0.4;1.6,0.44,neutral,female,21,8,11,13,10,15,60
human,12,1,1,26,Visual,TB,0.4;0.6;0.8;1;1.2;1.4;1.6,0.6,S,0.4;1.6,0.726,neutral,female,21,8,11,13,10,15,60
human,12,1,1,27,Visual,TB,0.4;0.6;0.8;1;1.2;1.4;1.6,0.6,S,0.4;1.6,0.588,neutral,female,21,8,11,13,10,15,60
human,12,1,1,28,Visual,TB,0.4;0.6;0.8;1;1.2;1.4;1.6,0.6,S,0.4;1.6,0.542,threat,female,21,8,11,13,10,15,60
human,12,1,1,29,Visual,TB,0.4;0.6;0.8;1;1.2;1.4;1.6,0.8,S,0.4;1.6,0.548,threat,female,21,8,11,13,10,15,60
human,12,1,1,30,Visual,TB,0.4;0.6;0.8;1;1.2;1.4;1.6,0.8,L,0.4;1.6,0.838,threat,female,21,8,11,13,10,15,60
human,12,1,1,31,Visual,TB,0.4;0.6;0.8;1;1.2;1.4;1.6,0.8,S,0.4;1.6,0.507,threat,female,21,8,11,13,10,15,60
human,12,1,1,32,Visual,TB,0.4;0.6;0.8;1;1.2;1.4;1.6,0.8,L,0.4;1.6,0.621,threat,female,21,8,11,13,10,15,60
human,12,1,1,33,Visual,TB,0.4;0.6;0.8;1;1.2;1.4;1.6,0.8,L,0.4;1.6,0.477,threat,female,21,8,11,13,10,15,60
human,12,1,1,34,Visual,TB,0.4;0.6;0.8;1;1.2;1.4;1.6,0.8,L,0.4;1.6,0.646,threat,female,21,8,11,13,10,15,60
human,12,1,1,35,Visual,TB,0.4;0.6;0.8;1;1.2;1.4;1.6,0.8,L,0.4;1.6,0.706,neutral,female,21,8,11,13,10,15,60
human,12,1,1,36,Visual,TB,0.4;0.6;0.8;1;1.2;1.4;1.6,0.8,S,0.4;1.6,0.541,neutral,female,21,8,11,13,10,15,60
human,12,1,1,37,Visual,TB,0.4;0.6;0.8;1;1.2;1.4;1.6,0.8,S,0.4;1.6,0.639,neutral,female,21,8,11,13,10,15,60
human,12,1,1,38,Visual,TB,0.4;0.6;0.8;1;1.2;1.4;1.6,0.8,L,0.4;1.6,0.393,neutral,female,21,8,11,13,10,15,60
human,12,1,1,39,Visual,TB,0.4;0.6;0.8;1;1.2;1.4;1.6,0.8,S,0.4;1.6,0.64,neutral,female,21,8,11,13,10,15,60
human,12,1,1,40,Visual,TB,0.4;0.6;0.8;1;1.2;1.4;1.6,0.8,S,0.4;1.6,0.67,neutral,female,21,8,11,13,10,15,60
human,12,1,1,41,Visual,TB,0.4;0.6;0.8;1;1.2;1.4;1.6,0.8,L,0.4;1.6,0.503,neutral,female,21,8,11,13,10,15,60
human,12,1,1,42,Visual,TB,0.4;0.6;0.8;1;1.2;1.4;1.6,0.8,L,0.4;1.6,1.107,threat,female,21,8,11,13,10,15,60
human,12,1,1,43,Visual,TB,0.4;0.6;0.8;1;1.2;1.4;1.6,1,L,0.4;1.6,0.367,threat,female,21,8,11,13,10,15,60
human,12,1,1,44,Visual,TB,0.4;0.6;0.8;1;1.2;1.4;1.6,1,L,0.4;1.6,0.475,threat,female,21,8,11,13,10,15,60
human,12,1,1,45,Visual,TB,0.4;0.6;0.8;1;1.2;1.4;1.6,1,L,0.4;1.6,0.52,threat,female,21,8,11,13,10,15,60
human,12,1,1,46,Visual,TB,0.4;0.6;0.8;1;1.2;1.4;1.6,1,S,0.4;1.6,0.608,threat,female,21,8,11,13,10,15,60
human,12,1,1,47,Visual,TB,0.4;0.6;0.8;1;1.2;1.4;1.6,1,S,0.4;1.6,0.694,threat,female,21,8,11,13,10,15,60
human,12,1,1,48,Visual,TB,0.4;0.6;0.8;1;1.2;1.4;1.6,1,L,0.4;1.6,0.627,threat,female,21,8,11,13,10,15,60
human,12,1,1,49,Visual,TB,0.4;0.6;0.8;1;1.2;1.4;1.6,1,L,0.4;1.6,0.564,neutral,female,21,8,11,13,10,15,60
human,12,1,1,50,Visual,TB,0.4;0.6;0.8;1;1.2;1.4;1.6,1,L,0.4;1.6,0.681,neutral,female,21,8,11,13,10,15,60
human,12,1,1,51,Visual,TB,0.4;0.6;0.8;1;1.2;1.4;1.6,1,S,0.4;1.6,0.73,neutral,female,21,8,11,13,10,15,60
human,12,1,1,52,Visual,TB,0.4;0.6;0.8;1;1.2;1.4;1.6,1,L,0.4;1.6,0.707,neutral,female,21,8,11,13,10,15,60
human,12,1,1,53,Visual,TB,0.4;0.6;0.8;1;1.2;1.4;1.6,1,L,0.4;1.6,0.597,neutral,female,21,8,11,13,10,15,60
human,12,1,1,54,Visual,TB,0.4;0.6;0.8;1;1.2;1.4;1.6,1,L,0.4;1.6,0.722,neutral,female,21,8,11,13,10,15,60
human,12,1,1,55,Visual,TB,0.4;0.6;0.8;1;1.2;1.4;1.6,1,L,0.4;1.6,0.531,neutral,female,21,8,11,13,10,15,60
human,12,1,1,56,Visual,TB,0.4;0.6;0.8;1;1.2;1.4;1.6,1,L,0.4;1.6,0.318,threat,female,21,8,11,13,10,15,60
human,12,1,1,57,Visual,TB,0.4;0.6;0.8;1;1.2;1.4;1.6,1.2,L,0.4;1.6,0.488,threat,female,21,8,11,13,10,15,60
human,12,1,1,58,Visual,TB,0.4;0.6;0.8;1;1.2;1.4;1.6,1.2,L,0.4;1.6,0.755,threat,female,21,8,11,13,10,15,60
human,12,1,1,59,Visual,TB,0.4;0.6;0.8;1;1.2;1.4;1.6,1.2,L,0.4;1.6,0.346,threat,female,21,8,11,13,10,15,60
human,12,1,1,60,Visual,TB,0.4;0.6;0.8;1;1.2;1.4;1.6,1.2,L,0.4;1.6,0.331,threat,female,21,8,11,13,10,15,60
human,12,1,1,61,Visual,TB,0.4;0.6;0.8;1;1.2;1.4;1.6,1.2,L,0.4;1.6,0.627,threat,female,21,8,11,13,10,15,60
human,12,1,1,62,Visual,TB,0.4;0.6;0.8;1;1.2;1.4;1.6,1.2,L,0.4;1.6,1.438,threat,female,21,8,11,13,10,15,60
human,12,1,1,63,Visual,TB,0.4;0.6;0.8;1;1.2;1.4;1.6,1.2,L,0.4;1.6,0.466,neutral,female,21,8,11,13,10,15,60
human,12,1,1,64,Visual,TB,0.4;0.6;0.8;1;1.2;1.4;1.6,1.2,L,0.4;1.6,0.402,neutral,female,21,8,11,13,10,15,60
human,12,1,1,65,Visual,TB,0.4;0.6;0.8;1;1.2;1.4;1.6,1.2,L,0.4;1.6,0.876,neutral,female,21,8,11,13,10,15,60
human,12,1,1,66,Visual,TB,0.4;0.6;0.8;1;1.2;1.4;1.6,1.2,L,0.4;1.6,0.513,neutral,female,21,8,11,13,10,15,60
human,12,1,1,67,Visual,TB,0.4;0.6;0.8;1;1.2;1.4;1.6,1.2,L,0.4;1.6,0.391,neutral,female,21,8,11,13,10,15,60
human,12,1,1,68,Visual,TB,0.4;0.6;0.8;1;1.2;1.4;1.6,1.2,L,0.4;1.6,0.378,neutral,female,21,8,11,13,10,15,60
human,12,1,1,69,Visual,TB,0.4;0.6;0.8;1;1.2;1.4;1.6,1.2,S,0.4;1.6,0.529,neutral,female,21,8,11,13,10,15,60
human,12,1,1,70,Visual,TB,0.4;0.6;0.8;1;1.2;1.4;1.6,1.2,L,0.4;1.6,0.978,threat,female,21,8,11,13,10,15,60
human,12,1,1,71,Visual,TB,0.4;0.6;0.8;1;1.2;1.4;1.6,1.4,L,0.4;1.6,0.345,threat,female,21,8,11,13,10,15,60
human,12,1,1,72,Visual,TB,0.4;0.6;0.8;1;1.2;1.4;1.6,1.4,L,0.4;1.6,0.319,threat,female,21,8,11,13,10,15,60
human,12,1,1,73,Visual,TB,0.4;0.6;0.8;1;1.2;1.4;1.6,1.4,L,0.4;1.6,0.288,threat,female,21,8,11,13,10,15,60
human,12,1,1,74,Visual,TB,0.4;0.6;0.8;1;1.2;1.4;1.6,1.4,L,0.4;1.6,0.31,threat,female,21,8,11,13,10,15,60
human,12,1,1,75,Visual,TB,0.4;0.6;0.8;1;1.2;1.4;1.6,1.4,L,0.4;1.6,0.418,threat,female,21,8,11,13,10,15,60
human,12,1,1,76,Visual,TB,0.4;0.6;0.8;1;1.2;1.4;1.6,1.4,L,0.4;1.6,0.37,threat,female,21,8,11,13,10,15,60
human,12,1,1,77,Visual,TB,0.4;0.6;0.8;1;1.2;1.4;1.6,1.4,L,0.4;1.6,0.439,threat,female,21,8,11,13,10,15,60
human,12,1,1,78,Visual,TB,0.4;0.6;0.8;1;1.2;1.4;1.6,1.4,L,0.4;1.6,0.417,neutral,female,21,8,11,13,10,15,60
human,12,1,1,79,Visual,TB,0.4;0.6;0.8;1;1.2;1.4;1.6,1.4,S,0.4;1.6,0.535,neutral,female,21,8,11,13,10,15,60
human,12,1,1,80,Visual,TB,0.4;0.6;0.8;1;1.2;1.4;1.6,1.4,L,0.4;1.6,0.3,neutral,female,21,8,11,13,10,15,60
human,12,1,1,81,Visual,TB,0.4;0.6;0.8;1;1.2;1.4;1.6,1.4,L,0.4;1.6,0.329,neutral,female,21,8,11,13,10,15,60
human,12,1,1,82,Visual,TB,0.4;0.6;0.8;1;1.2;1.4;1.6,1.4,L,0.4;1.6,0.53,neutral,female,21,8,11,13,10,15,60
human,12,1,1,83,Visual,TB,0.4;0.6;0.8;1;1.2;1.4;1.6,1.4,L,0.4;1.6,0.429,neutral,female,21,8,11,13,10,15,60
human,12,1,1,84,Visual,TB,0.4;0.6;0.8;1;1.2;1.4;1.6,1.4,L,0.4;1.6,0.473,neutral,female,21,8,11,13,10,15,60
human,12,1,1,85,Visual,TB,0.4;0.6;0.8;1;1.2;1.4;1.6,1.6,L,0.4;1.6,0.444,threat,female,21,8,11,13,10,15,60
human,12,1,1,86,Visual,TB,0.4;0.6;0.8;1;1.2;1.4;1.6,1.6,L,0.4;1.6,0.313,threat,female,21,8,11,13,10,15,60
human,12,1,1,87,Visual,TB,0.4;0.6;0.8;1;1.2;1.4;1.6,1.6,L,0.4;1.6,0.332,threat,female,21,8,11,13,10,15,60
human,12,1,1,88,Visual,TB,0.4;0.6;0.8;1;1.2;1.4;1.6,1.6,L,0.4;1.6,0.311,threat,female,21,8,11,13,10,15,60
human,12,1,1,89,Visual,TB,0.4;0.6;0.8;1;1.2;1.4;1.6,1.6,L,0.4;1.6,0.51,threat,female,21,8,11,13,10,15,60
human,12,1,1,90,Visual,TB,0.4;0.6;0.8;1;1.2;1.4;1.6,1.6,L,0.4;1.6,0.53,neutral,female,21,8,11,13,10,15,60
human,12,1,1,91,Visual,TB,0.4;0.6;0.8;1;1.2;1.4;1.6,1.6,L,0.4;1.6,0.842,neutral,female,21,8,11,13,10,15,60
human,12,1,1,92,Visual,TB,0.4;0.6;0.8;1;1.2;1.4;1.6,1.6,L,0.4;1.6,0.665,neutral,female,21,8,11,13,10,15,60
human,12,1,1,93,Visual,TB,0.4;0.6;0.8;1;1.2;1.4;1.6,1.6,L,0.4;1.6,0.886,neutral,female,21,8,11,13,10,15,60
human,12,1,1,94,Visual,TB,0.4;0.6;0.8;1;1.2;1.4;1.6,1.6,L,0.4;1.6,0.503,neutral,female,21,8,11,13,10,15,60
human,12,1,1,95,Visual,TB,0.4;0.6;0.8;1;1.2;1.4;1.6,1.6,L,0.4;1.6,0.55,neutral,female,21,8,11,13,10,15,60
human,12,1,1,96,Visual,TB,0.4;0.6;0.8;1;1.2;1.4;1.6,1.6,L,0.4;1.6,0.26,neutral,female,21,8,11,13,10,15,60
human,12,1,1,97,Visual,TB,0.4;0.6;0.8;1;1.2;1.4;1.6,1.6,L,0.4;1.6,0.341,threat,female,21,8,11,13,10,15,60
human,12,1,1,98,Visual,TB,0.4;0.6;0.8;1;1.2;1.4;1.6,1.6,L,0.4;1.6,0.465,threat,female,21,8,11,13,10,15,60
human,13,1,1,1,Visual,TB,0.4;0.6;0.8;1;1.2;1.4;1.6,0.4,S,0.4;1.6,0.41,threat,female,21,13,14,7,14,18,39
human,13,1,1,2,Visual,TB,0.4;0.6;0.8;1;1.2;1.4;1.6,0.4,S,0.4;1.6,0.569,threat,female,21,13,14,7,14,18,39
human,13,1,1,3,Visual,TB,0.4;0.6;0.8;1;1.2;1.4;1.6,0.4,S,0.4;1.6,0.572,threat,female,21,13,14,7,14,18,39
human,13,1,1,4,Visual,TB,0.4;0.6;0.8;1;1.2;1.4;1.6,0.4,S,0.4;1.6,0.407,threat,female,21,13,14,7,14,18,39
human,13,1,1,5,Visual,TB,0.4;0.6;0.8;1;1.2;1.4;1.6,0.4,S,0.4;1.6,0.386,threat,female,21,13,14,7,14,18,39
human,13,1,1,6,Visual,TB,0.4;0.6;0.8;1;1.2;1.4;1.6,0.4,S,0.4;1.6,0.333,threat,female,21,13,14,7,14,18,39
human,13,1,1,7,Visual,TB,0.4;0.6;0.8;1;1.2;1.4;1.6,0.4,S,0.4;1.6,0.46,neutral,female,21,13,14,7,14,18,39
human,13,1,1,8,Visual,TB,0.4;0.6;0.8;1;1.2;1.4;1.6,0.4,S,0.4;1.6,0.402,neutral,female,21,13,14,7,14,18,39
human,13,1,1,9,Visual,TB,0.4;0.6;0.8;1;1.2;1.4;1.6,0.4,S,0.4;1.6,0.459,neutral,female,21,13,14,7,14,18,39
human,13,1,1,10,Visual,TB,0.4;0.6;0.8;1;1.2;1.4;1.6,0.4,S,0.4;1.6,0.545,neutral,female,21,13,14,7,14,18,39
human,13,1,1,11,Visual,TB,0.4;0.6;0.8;1;1.2;1.4;1.6,0.4,S,0.4;1.6,0.528,neutral,female,21,13,14,7,14,18,39
human,13,1,1,12,Visual,TB,0.4;0.6;0.8;1;1.2;1.4;1.6,0.4,S,0.4;1.6,0.502,neutral,female,21,13,14,7,14,18,39
human,13,1,1,13,Visual,TB,0.4;0.6;0.8;1;1.2;1.4;1.6,0.4,S,0.4;1.6,0.664,neutral,female,21,13,14,7,14,18,39
human,13,1,1,14,Visual,TB,0.4;0.6;0.8;1;1.2;1.4;1.6,0.4,S,0.4;1.6,0.301,threat,female,21,13,14,7,14,18,39
human,13,1,1,15,Visual,TB,0.4;0.6;0.8;1;1.2;1.4;1.6,0.6,S,0.4;1.6,0.54,threat,female,21,13,14,7,14,18,39
human,13,1,1,16,Visual,TB,0.4;0.6;0.8;1;1.2;1.4;1.6,0.6,S,0.4;1.6,0.572,threat,female,21,13,14,7,14,18,39
human,13,1,1,17,Visual,TB,0.4;0.6;0.8;1;1.2;1.4;1.6,0.6,S,0.4;1.6,0.644,threat,female,21,13,14,7,14,18,39
human,13,1,1,18,Visual,TB,0.4;0.6;0.8;1;1.2;1.4;1.6,0.6,S,0.4;1.6,0.646,threat,female,21,13,14,7,14,18,39
human,13,1,1,19,Visual,TB,0.4;0.6;0.8;1;1.2;1.4;1.6,0.6,S,0.4;1.6,0.39,threat,female,21,13,14,7,14,18,39
human,13,1,1,20,Visual,TB,0.4;0.6;0.8;1;1.2;1.4;1.6,0.6,S,0.4;1.6,0.326,threat,female,21,13,14,7,14,18,39
human,13,1,1,21,Visual,TB,0.4;0.6;0.8;1;1.2;1.4;1.6,0.6,S,0.4;1.6,0.358,neutral,female,21,13,14,7,14,18,39
human,13,1,1,22,Visual,TB,0.4;0.6;0.8;1;1.2;1.4;1.6,0.6,S,0.4;1.6,0.344,neutral,female,21,13,14,7,14,18,39
human,13,1,1,23,Visual,TB,0.4;0.6;0.8;1;1.2;1.4;1.6,0.6,S,0.4;1.6,0.516,neutral,female,21,13,14,7,14,18,39
human,13,1,1,24,Visual,TB,0.4;0.6;0.8;1;1.2;1.4;1.6,0.6,S,0.4;1.6,0.647,neutral,female,21,13,14,7,14,18,39
human,13,1,1,25,Visual,TB,0.4;0.6;0.8;1;1.2;1.4;1.6,0.6,S,0.4;1.6,0.404,neutral,female,21,13,14,7,14,18,39
human,13,1,1,26,Visual,TB,0.4;0.6;0.8;1;1.2;1.4;1.6,0.6,S,0.4;1.6,0.241,neutral,female,21,13,14,7,14,18,39
human,13,1,1,27,Visual,TB,0.4;0.6;0.8;1;1.2;1.4;1.6,0.6,S,0.4;1.6,0.419,neutral,female,21,13,14,7,14,18,39
human,13,1,1,28,Visual,TB,0.4;0.6;0.8;1;1.2;1.4;1.6,0.6,S,0.4;1.6,0.529,threat,female,21,13,14,7,14,18,39
human,13,1,1,29,Visual,TB,0.4;0.6;0.8;1;1.2;1.4;1.6,0.8,S,0.4;1.6,0.69,threat,female,21,13,14,7,14,18,39
human,13,1,1,30,Visual,TB,0.4;0.6;0.8;1;1.2;1.4;1.6,0.8,S,0.4;1.6,0.488,threat,female,21,13,14,7,14,18,39
human,13,1,1,31,Visual,TB,0.4;0.6;0.8;1;1.2;1.4;1.6,0.8,S,0.4;1.6,0.53,threat,female,21,13,14,7,14,18,39
human,13,1,1,32,Visual,TB,0.4;0.6;0.8;1;1.2;1.4;1.6,0.8,S,0.4;1.6,0.575,threat,female,21,13,14,7,14,18,39
human,13,1,1,33,Visual,TB,0.4;0.6;0.8;1;1.2;1.4;1.6,0.8,S,0.4;1.6,0.479,threat,female,21,13,14,7,14,18,39
human,13,1,1,34,Visual,TB,0.4;0.6;0.8;1;1.2;1.4;1.6,0.8,S,0.4;1.6,0.334,threat,female,21,13,14,7,14,18,39
human,13,1,1,35,Visual,TB,0.4;0.6;0.8;1;1.2;1.4;1.6,0.8,S,0.4;1.6,0.451,neutral,female,21,13,14,7,14,18,39
human,13,1,1,36,Visual,TB,0.4;0.6;0.8;1;1.2;1.4;1.6,0.8,S,0.4;1.6,0.387,neutral,female,21,13,14,7,14,18,39
human,13,1,1,37,Visual,TB,0.4;0.6;0.8;1;1.2;1.4;1.6,0.8,L,0.4;1.6,0.361,neutral,female,21,13,14,7,14,18,39
human,13,1,1,38,Visual,TB,0.4;0.6;0.8;1;1.2;1.4;1.6,0.8,S,0.4;1.6,0.685,neutral,female,21,13,14,7,14,18,39
human,13,1,1,39,Visual,TB,0.4;0.6;0.8;1;1.2;1.4;1.6,0.8,S,0.4;1.6,0.857,neutral,female,21,13,14,7,14,18,39
human,13,1,1,40,Visual,TB,0.4;0.6;0.8;1;1.2;1.4;1.6,0.8,S,0.4;1.6,0.257,neutral,female,21,13,14,7,14,18,39
human,13,1,1,41,Visual,TB,0.4;0.6;0.8;1;1.2;1.4;1.6,0.8,S,0.4;1.6,0.52,neutral,female,21,13,14,7,14,18,39
human,13,1,1,42,Visual,TB,0.4;0.6;0.8;1;1.2;1.4;1.6,0.8,S,0.4;1.6,1.174,threat,female,21,13,14,7,14,18,39
human,13,1,1,43,Visual,TB,0.4;0.6;0.8;1;1.2;1.4;1.6,1,L,0.4;1.6,0.355,threat,female,21,13,14,7,14,18,39
human,13,1,1,44,Visual,TB,0.4;0.6;0.8;1;1.2;1.4;1.6,1,S,0.4;1.6,0.34,threat,female,21,13,14,7,14,18,39
human,13,1,1,45,Visual,TB,0.4;0.6;0.8;1;1.2;1.4;1.6,1,L,0.4;1.6,0.367,threat,female,21,13,14,7,14,18,39
human,13,1,1,46,Visual,TB,0.4;0.6;0.8;1;1.2;1.4;1.6,1,S,0.4;1.6,0.496,threat,female,21,13,14,7,14,18,39
human,13,1,1,47,Visual,TB,0.4;0.6;0.8;1;1.2;1.4;1.6,1,S,0.4;1.6,0.553,threat,female,21,13,14,7,14,18,39
human,13,1,1,48,Visual,TB,0.4;0.6;0.8;1;1.2;1.4;1.6,1,S,0.4;1.6,0.697,threat,female,21,13,14,7,14,18,39
human,13,1,1,49,Visual,TB,0.4;0.6;0.8;1;1.2;1.4;1.6,1,S,0.4;1.6,0.874,neutral,female,21,13,14,7,14,18,39
human,13,1,1,50,Visual,TB,0.4;0.6;0.8;1;1.2;1.4;1.6,1,S,0.4;1.6,1.171,neutral,female,21,13,14,7,14,18,39
human,13,1,1,51,Visual,TB,0.4;0.6;0.8;1;1.2;1.4;1.6,1,S,0.4;1.6,0.469,neutral,female,21,13,14,7,14,18,39
human,13,1,1,52,Visual,TB,0.4;0.6;0.8;1;1.2;1.4;1.6,1,L,0.4;1.6,0.623,neutral,female,21,13,14,7,14,18,39
human,13,1,1,53,Visual,TB,0.4;0.6;0.8;1;1.2;1.4;1.6,1,L,0.4;1.6,0.474,neutral,female,21,13,14,7,14,18,39
human,13,1,1,54,Visual,TB,0.4;0.6;0.8;1;1.2;1.4;1.6,1,L,0.4;1.6,0.912,neutral,female,21,13,14,7,14,18,39
human,13,1,1,55,Visual,TB,0.4;0.6;0.8;1;1.2;1.4;1.6,1,L,0.4;1.6,0.367,neutral,female,21,13,14,7,14,18,39
human,13,1,1,56,Visual,TB,0.4;0.6;0.8;1;1.2;1.4;1.6,1,S,0.4;1.6,0.527,threat,female,21,13,14,7,14,18,39
human,13,1,1,57,Visual,TB,0.4;0.6;0.8;1;1.2;1.4;1.6,1.2,S,0.4;1.6,0.724,threat,female,21,13,14,7,14,18,39
human,13,1,1,58,Visual,TB,0.4;0.6;0.8;1;1.2;1.4;1.6,1.2,S,0.4;1.6,0.537,threat,female,21,13,14,7,14,18,39
human,13,1,1,59,Visual,TB,0.4;0.6;0.8;1;1.2;1.4;1.6,1.2,S,0.4;1.6,0.474,threat,female,21,13,14,7,14,18,39
human,13,1,1,60,Visual,TB,0.4;0.6;0.8;1;1.2;1.4;1.6,1.2,L,0.4;1.6,0.283,threat,female,21,13,14,7,14,18,39
human,13,1,1,61,Visual,TB,0.4;0.6;0.8;1;1.2;1.4;1.6,1.2,L,0.4;1.6,0.34,threat,female,21,13,14,7,14,18,39
human,13,1,1,62,Visual,TB,0.4;0.6;0.8;1;1.2;1.4;1.6,1.2,L,0.4;1.6,0.476,threat,female,21,13,14,7,14,18,39
human,13,1,1,63,Visual,TB,0.4;0.6;0.8;1;1.2;1.4;1.6,1.2,S,0.4;1.6,0.778,neutral,female,21,13,14,7,14,18,39
human,13,1,1,64,Visual,TB,0.4;0.6;0.8;1;1.2;1.4;1.6,1.2,S,0.4;1.6,0.806,neutral,female,21,13,14,7,14,18,39
human,13,1,1,65,Visual,TB,0.4;0.6;0.8;1;1.2;1.4;1.6,1.2,S,0.4;1.6,0.506,neutral,female,21,13,14,7,14,18,39
human,13,1,1,66,Visual,TB,0.4;0.6;0.8;1;1.2;1.4;1.6,1.2,S,0.4;1.6,0.522,neutral,female,21,13,14,7,14,18,39
human,13,1,1,67,Visual,TB,0.4;0.6;0.8;1;1.2;1.4;1.6,1.2,S,0.4;1.6,0.496,neutral,female,21,13,14,7,14,18,39
human,13,1,1,68,Visual,TB,0.4;0.6;0.8;1;1.2;1.4;1.6,1.2,S,0.4;1.6,0.52,neutral,female,21,13,14,7,14,18,39
human,13,1,1,69,Visual,TB,0.4;0.6;0.8;1;1.2;1.4;1.6,1.2,S,0.4;1.6,1.486,neutral,female,21,13,14,7,14,18,39
human,13,1,1,70,Visual,TB,0.4;0.6;0.8;1;1.2;1.4;1.6,1.2,L,0.4;1.6,0.489,threat,female,21,13,14,7,14,18,39
human,13,1,1,71,Visual,TB,0.4;0.6;0.8;1;1.2;1.4;1.6,1.4,L,0.4;1.6,0.684,threat,female,21,13,14,7,14,18,39
human,13,1,1,72,Visual,TB,0.4;0.6;0.8;1;1.2;1.4;1.6,1.4,L,0.4;1.6,0.369,threat,female,21,13,14,7,14,18,39
human,13,1,1,73,Visual,TB,0.4;0.6;0.8;1;1.2;1.4;1.6,1.4,S,0.4;1.6,0.496,threat,female,21,13,14,7,14,18,39
human,13,1,1,74,Visual,TB,0.4;0.6;0.8;1;1.2;1.4;1.6,1.4,L,0.4;1.6,0.726,threat,female,21,13,14,7,14,18,39
human,13,1,1,75,Visual,TB,0.4;0.6;0.8;1;1.2;1.4;1.6,1.4,L,0.4;1.6,0.27,threat,female,21,13,14,7,14,18,39
human,13,1,1,76,Visual,TB,0.4;0.6;0.8;1;1.2;1.4;1.6,1.4,L,0.4;1.6,0.301,threat,female,21,13,14,7,14,18,39
human,13,1,1,77,Visual,TB,0.4;0.6;0.8;1;1.2;1.4;1.6,1.4,L,0.4;1.6,0.471,threat,female,21,13,14,7,14,18,39
human,13,1,1,78,Visual,TB,0.4;0.6;0.8;1;1.2;1.4;1.6,1.4,L,0.4;1.6,0.363,neutral,female,21,13,14,7,14,18,39
human,13,1,1,79,Visual,TB,0.4;0.6;0.8;1;1.2;1.4;1.6,1.4,L,0.4;1.6,0.326,neutral,female,21,13,14,7,14,18,39
human,13,1,1,80,Visual,TB,0.4;0.6;0.8;1;1.2;1.4;1.6,1.4,S,0.4;1.6,0.363,neutral,female,21,13,14,7,14,18,39
human,13,1,1,81,Visual,TB,0.4;0.6;0.8;1;1.2;1.4;1.6,1.4,S,0.4;1.6,7.158,neutral,female,21,13,14,7,14,18,39
human,13,1,1,82,Visual,TB,0.4;0.6;0.8;1;1.2;1.4;1.6,1.4,L,0.4;1.6,0.364,neutral,female,21,13,14,7,14,18,39
human,13,1,1,83,Visual,TB,0.4;0.6;0.8;1;1.2;1.4;1.6,1.4,L,0.4;1.6,0.381,neutral,female,21,13,14,7,14,18,39
human,13,1,1,84,Visual,TB,0.4;0.6;0.8;1;1.2;1.4;1.6,1.4,L,0.4;1.6,0.438,neutral,female,21,13,14,7,14,18,39
human,13,1,1,85,Visual,TB,0.4;0.6;0.8;1;1.2;1.4;1.6,1.6,L,0.4;1.6,0.551,threat,female,21,13,14,7,14,18,39
human,13,1,1,86,Visual,TB,0.4;0.6;0.8;1;1.2;1.4;1.6,1.6,S,0.4;1.6,0.719,threat,female,21,13,14,7,14,18,39
human,13,1,1,87,Visual,TB,0.4;0.6;0.8;1;1.2;1.4;1.6,1.6,L,0.4;1.6,0.263,threat,female,21,13,14,7,14,18,39
human,13,1,1,88,Visual,TB,0.4;0.6;0.8;1;1.2;1.4;1.6,1.6,L,0.4;1.6,0.655,threat,female,21,13,14,7,14,18,39
human,13,1,1,89,Visual,TB,0.4;0.6;0.8;1;1.2;1.4;1.6,1.6,L,0.4;1.6,0.363,threat,female,21,13,14,7,14,18,39
human,13,1,1,90,Visual,TB,0.4;0.6;0.8;1;1.2;1.4;1.6,1.6,L,0.4;1.6,0.44,neutral,female,21,13,14,7,14,18,39
human,13,1,1,91,Visual,TB,0.4;0.6;0.8;1;1.2;1.4;1.6,1.6,L,0.4;1.6,0.7,neutral,female,21,13,14,7,14,18,39
human,13,1,1,92,Visual,TB,0.4;0.6;0.8;1;1.2;1.4;1.6,1.6,S,0.4;1.6,0.709,neutral,female,21,13,14,7,14,18,39
human,13,1,1,93,Visual,TB,0.4;0.6;0.8;1;1.2;1.4;1.6,1.6,L,0.4;1.6,0.46,neutral,female,21,13,14,7,14,18,39
human,13,1,1,94,Visual,TB,0.4;0.6;0.8;1;1.2;1.4;1.6,1.6,L,0.4;1.6,0.415,neutral,female,21,13,14,7,14,18,39
human,13,1,1,95,Visual,TB,0.4;0.6;0.8;1;1.2;1.4;1.6,1.6,L,0.4;1.6,0.396,neutral,female,21,13,14,7,14,18,39
human,13,1,1,96,Visual,TB,0.4;0.6;0.8;1;1.2;1.4;1.6,1.6,L,0.4;1.6,0.348,neutral,female,21,13,14,7,14,18,39
human,13,1,1,97,Visual,TB,0.4;0.6;0.8;1;1.2;1.4;1.6,1.6,L,0.4;1.6,0.469,threat,female,21,13,14,7,14,18,39
human,13,1,1,98,Visual,TB,0.4;0.6;0.8;1;1.2;1.4;1.6,1.6,L,0.4;1.6,0.565,threat,female,21,13,14,7,14,18,39
human,14,1,1,1,Visual,TB,0.4;0.6;0.8;1;1.2;1.4;1.6,0.4,S,0.4;1.6,0.55,threat,male,21,10,10,9,16,15,39
human,14,1,1,2,Visual,TB,0.4;0.6;0.8;1;1.2;1.4;1.6,0.4,S,0.4;1.6,0.597,threat,male,21,10,10,9,16,15,39
human,14,1,1,3,Visual,TB,0.4;0.6;0.8;1;1.2;1.4;1.6,0.4,S,0.4;1.6,0.529,threat,male,21,10,10,9,16,15,39
human,14,1,1,4,Visual,TB,0.4;0.6;0.8;1;1.2;1.4;1.6,0.4,S,0.4;1.6,0.59,threat,male,21,10,10,9,16,15,39
human,14,1,1,5,Visual,TB,0.4;0.6;0.8;1;1.2;1.4;1.6,0.4,S,0.4;1.6,0.518,threat,male,21,10,10,9,16,15,39
human,14,1,1,6,Visual,TB,0.4;0.6;0.8;1;1.2;1.4;1.6,0.4,S,0.4;1.6,0.456,threat,male,21,10,10,9,16,15,39
human,14,1,1,7,Visual,TB,0.4;0.6;0.8;1;1.2;1.4;1.6,0.4,S,0.4;1.6,0.622,neutral,male,21,10,10,9,16,15,39
human,14,1,1,8,Visual,TB,0.4;0.6;0.8;1;1.2;1.4;1.6,0.4,S,0.4;1.6,0.432,neutral,male,21,10,10,9,16,15,39
human,14,1,1,9,Visual,TB,0.4;0.6;0.8;1;1.2;1.4;1.6,0.4,S,0.4;1.6,0.614,neutral,male,21,10,10,9,16,15,39
human,14,1,1,10,Visual,TB,0.4;0.6;0.8;1;1.2;1.4;1.6,0.4,S,0.4;1.6,0.53,neutral,male,21,10,10,9,16,15,39
human,14,1,1,11,Visual,TB,0.4;0.6;0.8;1;1.2;1.4;1.6,0.4,S,0.4;1.6,0.642,neutral,male,21,10,10,9,16,15,39
human,14,1,1,12,Visual,TB,0.4;0.6;0.8;1;1.2;1.4;1.6,0.4,S,0.4;1.6,0.654,neutral,male,21,10,10,9,16,15,39
human,14,1,1,13,Visual,TB,0.4;0.6;0.8;1;1.2;1.4;1.6,0.4,S,0.4;1.6,0.499,neutral,male,21,10,10,9,16,15,39
human,14,1,1,14,Visual,TB,0.4;0.6;0.8;1;1.2;1.4;1.6,0.4,S,0.4;1.6,0.542,threat,male,21,10,10,9,16,15,39
human,14,1,1,15,Visual,TB,0.4;0.6;0.8;1;1.2;1.4;1.6,0.6,S,0.4;1.6,0.758,threat,male,21,10,10,9,16,15,39
human,14,1,1,16,Visual,TB,0.4;0.6;0.8;1;1.2;1.4;1.6,0.6,S,0.4;1.6,0.399,threat,male,21,10,10,9,16,15,39
human,14,1,1,17,Visual,TB,0.4;0.6;0.8;1;1.2;1.4;1.6,0.6,S,0.4;1.6,0.643,threat,male,21,10,10,9,16,15,39
human,14,1,1,18,Visual,TB,0.4;0.6;0.8;1;1.2;1.4;1.6,0.6,S,0.4;1.6,0.632,threat,male,21,10,10,9,16,15,39
human,14,1,1,19,Visual,TB,0.4;0.6;0.8;1;1.2;1.4;1.6,0.6,S,0.4;1.6,0.351,threat,male,21,10,10,9,16,15,39
human,14,1,1,20,Visual,TB,0.4;0.6;0.8;1;1.2;1.4;1.6,0.6,S,0.4;1.6,0.398,threat,male,21,10,10,9,16,15,39
human,14,1,1,21,Visual,TB,0.4;0.6;0.8;1;1.2;1.4;1.6,0.6,S,0.4;1.6,1.389,neutral,male,21,10,10,9,16,15,39
human,14,1,1,22,Visual,TB,0.4;0.6;0.8;1;1.2;1.4;1.6,0.6,S,0.4;1.6,0.565,neutral,male,21,10,10,9,16,15,39
human,14,1,1,23,Visual,TB,0.4;0.6;0.8;1;1.2;1.4;1.6,0.6,S,0.4;1.6,0.492,neutral,male,21,10,10,9,16,15,39
human,14,1,1,24,Visual,TB,0.4;0.6;0.8;1;1.2;1.4;1.6,0.6,S,0.4;1.6,0.63,neutral,male,21,10,10,9,16,15,39
human,14,1,1,25,Visual,TB,0.4;0.6;0.8;1;1.2;1.4;1.6,0.6,S,0.4;1.6,0.581,neutral,male,21,10,10,9,16,15,39
human,14,1,1,26,Visual,TB,0.4;0.6;0.8;1;1.2;1.4;1.6,0.6,S,0.4;1.6,0.471,neutral,male,21,10,10,9,16,15,39
human,14,1,1,27,Visual,TB,0.4;0.6;0.8;1;1.2;1.4;1.6,0.6,S,0.4;1.6,0.682,neutral,male,21,10,10,9,16,15,39
human,14,1,1,28,Visual,TB,0.4;0.6;0.8;1;1.2;1.4;1.6,0.6,S,0.4;1.6,0.508,threat,male,21,10,10,9,16,15,39
human,14,1,1,29,Visual,TB,0.4;0.6;0.8;1;1.2;1.4;1.6,0.8,L,0.4;1.6,0.381,threat,male,21,10,10,9,16,15,39
human,14,1,1,30,Visual,TB,0.4;0.6;0.8;1;1.2;1.4;1.6,0.8,L,0.4;1.6,0.567,threat,male,21,10,10,9,16,15,39
human,14,1,1,31,Visual,TB,0.4;0.6;0.8;1;1.2;1.4;1.6,0.8,S,0.4;1.6,1.137,threat,male,21,10,10,9,16,15,39
human,14,1,1,32,Visual,TB,0.4;0.6;0.8;1;1.2;1.4;1.6,0.8,S,0.4;1.6,1.167,threat,male,21,10,10,9,16,15,39
human,14,1,1,33,Visual,TB,0.4;0.6;0.8;1;1.2;1.4;1.6,0.8,S,0.4;1.6,1.622,threat,male,21,10,10,9,16,15,39
human,14,1,1,34,Visual,TB,0.4;0.6;0.8;1;1.2;1.4;1.6,0.8,S,0.4;1.6,4.395,threat,male,21,10,10,9,16,15,39
human,14,1,1,35,Visual,TB,0.4;0.6;0.8;1;1.2;1.4;1.6,0.8,S,0.4;1.6,0.532,neutral,male,21,10,10,9,16,15,39
human,14,1,1,36,Visual,TB,0.4;0.6;0.8;1;1.2;1.4;1.6,0.8,S,0.4;1.6,0.337,neutral,male,21,10,10,9,16,15,39
human,14,1,1,37,Visual,TB,0.4;0.6;0.8;1;1.2;1.4;1.6,0.8,L,0.4;1.6,0.691,neutral,male,21,10,10,9,16,15,39
human,14,1,1,38,Visual,TB,0.4;0.6;0.8;1;1.2;1.4;1.6,0.8,S,0.4;1.6,0.358,neutral,male,21,10,10,9,16,15,39
human,14,1,1,39,Visual,TB,0.4;0.6;0.8;1;1.2;1.4;1.6,0.8,S,0.4;1.6,1.51,neutral,male,21,10,10,9,16,15,39
human,14,1,1,40,Visual,TB,0.4;0.6;0.8;1;1.2;1.4;1.6,0.8,S,0.4;1.6,0.502,neutral,male,21,10,10,9,16,15,39
human,14,1,1,41,Visual,TB,0.4;0.6;0.8;1;1.2;1.4;1.6,0.8,L,0.4;1.6,0.384,neutral,male,21,10,10,9,16,15,39
human,14,1,1,42,Visual,TB,0.4;0.6;0.8;1;1.2;1.4;1.6,0.8,S,0.4;1.6,0.643,threat,male,21,10,10,9,16,15,39
human,14,1,1,43,Visual,TB,0.4;0.6;0.8;1;1.2;1.4;1.6,1,S,0.4;1.6,1.224,threat,male,21,10,10,9,16,15,39
human,14,1,1,44,Visual,TB,0.4;0.6;0.8;1;1.2;1.4;1.6,1,L,0.4;1.6,0.773,threat,male,21,10,10,9,16,15,39
human,14,1,1,45,Visual,TB,0.4;0.6;0.8;1;1.2;1.4;1.6,1,L,0.4;1.6,0.32,threat,male,21,10,10,9,16,15,39
human,14,1,1,46,Visual,TB,0.4;0.6;0.8;1;1.2;1.4;1.6,1,L,0.4;1.6,0.31,threat,male,21,10,10,9,16,15,39
human,14,1,1,47,Visual,TB,0.4;0.6;0.8;1;1.2;1.4;1.6,1,S,0.4;1.6,0.436,threat,male,21,10,10,9,16,15,39
human,14,1,1,48,Visual,TB,0.4;0.6;0.8;1;1.2;1.4;1.6,1,S,0.4;1.6,1.489,threat,male,21,10,10,9,16,15,39
human,14,1,1,49,Visual,TB,0.4;0.6;0.8;1;1.2;1.4;1.6,1,L,0.4;1.6,1.035,neutral,male,21,10,10,9,16,15,39
human,14,1,1,50,Visual,TB,0.4;0.6;0.8;1;1.2;1.4;1.6,1,L,0.4;1.6,0.557,neutral,male,21,10,10,9,16,15,39
human,14,1,1,51,Visual,TB,0.4;0.6;0.8;1;1.2;1.4;1.6,1,L,0.4;1.6,0.29,neutral,male,21,10,10,9,16,15,39
human,14,1,1,52,Visual,TB,0.4;0.6;0.8;1;1.2;1.4;1.6,1,L,0.4;1.6,0.422,neutral,male,21,10,10,9,16,15,39
human,14,1,1,53,Visual,TB,0.4;0.6;0.8;1;1.2;1.4;1.6,1,L,0.4;1.6,0.703,neutral,male,21,10,10,9,16,15,39
human,14,1,1,54,Visual,TB,0.4;0.6;0.8;1;1.2;1.4;1.6,1,L,0.4;1.6,1.139,neutral,male,21,10,10,9,16,15,39
human,14,1,1,55,Visual,TB,0.4;0.6;0.8;1;1.2;1.4;1.6,1,L,0.4;1.6,1.262,neutral,male,21,10,10,9,16,15,39
human,14,1,1,56,Visual,TB,0.4;0.6;0.8;1;1.2;1.4;1.6,1,L,0.4;1.6,0.335,threat,male,21,10,10,9,16,15,39
human,14,1,1,57,Visual,TB,0.4;0.6;0.8;1;1.2;1.4;1.6,1.2,L,0.4;1.6,0.349,threat,male,21,10,10,9,16,15,39
human,14,1,1,58,Visual,TB,0.4;0.6;0.8;1;1.2;1.4;1.6,1.2,L,0.4;1.6,0.381,threat,male,21,10,10,9,16,15,39
human,14,1,1,59,Visual,TB,0.4;0.6;0.8;1;1.2;1.4;1.6,1.2,L,0.4;1.6,0.413,threat,male,21,10,10,9,16,15,39
human,14,1,1,60,Visual,TB,0.4;0.6;0.8;1;1.2;1.4;1.6,1.2,L,0.4;1.6,0.387,threat,male,21,10,10,9,16,15,39
human,14,1,1,61,Visual,TB,0.4;0.6;0.8;1;1.2;1.4;1.6,1.2,L,0.4;1.6,0.662,threat,male,21,10,10,9,16,15,39
human,14,1,1,62,Visual,TB,0.4;0.6;0.8;1;1.2;1.4;1.6,1.2,L,0.4;1.6,0.786,threat,male,21,10,10,9,16,15,39
human,14,1,1,63,Visual,TB,0.4;0.6;0.8;1;1.2;1.4;1.6,1.2,L,0.4;1.6,0.773,neutral,male,21,10,10,9,16,15,39
human,14,1,1,64,Visual,TB,0.4;0.6;0.8;1;1.2;1.4;1.6,1.2,L,0.4;1.6,1.132,neutral,male,21,10,10,9,16,15,39
human,14,1,1,65,Visual,TB,0.4;0.6;0.8;1;1.2;1.4;1.6,1.2,L,0.4;1.6,0.806,neutral,male,21,10,10,9,16,15,39
human,14,1,1,66,Visual,TB,0.4;0.6;0.8;1;1.2;1.4;1.6,1.2,L,0.4;1.6,0.382,neutral,male,21,10,10,9,16,15,39
human,14,1,1,67,Visual,TB,0.4;0.6;0.8;1;1.2;1.4;1.6,1.2,L,0.4;1.6,1.064,neutral,male,21,10,10,9,16,15,39
human,14,1,1,68,Visual,TB,0.4;0.6;0.8;1;1.2;1.4;1.6,1.2,L,0.4;1.6,0.292,neutral,male,21,10,10,9,16,15,39
human,14,1,1,69,Visual,TB,0.4;0.6;0.8;1;1.2;1.4;1.6,1.2,L,0.4;1.6,0.7,neutral,male,21,10,10,9,16,15,39
human,14,1,1,70,Visual,TB,0.4;0.6;0.8;1;1.2;1.4;1.6,1.2,L,0.4;1.6,0.31,threat,male,21,10,10,9,16,15,39
human,14,1,1,71,Visual,TB,0.4;0.6;0.8;1;1.2;1.4;1.6,1.4,L,0.4;1.6,1.1,threat,male,21,10,10,9,16,15,39
human,14,1,1,72,Visual,TB,0.4;0.6;0.8;1;1.2;1.4;1.6,1.4,L,0.4;1.6,0.28,threat,male,21,10,10,9,16,15,39
human,14,1,1,73,Visual,TB,0.4;0.6;0.8;1;1.2;1.4;1.6,1.4,L,0.4;1.6,0.264,threat,male,21,10,10,9,16,15,39
human,14,1,1,74,Visual,TB,0.4;0.6;0.8;1;1.2;1.4;1.6,1.4,L,0.4;1.6,0.259,threat,male,21,10,10,9,16,15,39
human,14,1,1,75,Visual,TB,0.4;0.6;0.8;1;1.2;1.4;1.6,1.4,L,0.4;1.6,0.231,threat,male,21,10,10,9,16,15,39
human,14,1,1,76,Visual,TB,0.4;0.6;0.8;1;1.2;1.4;1.6,1.4,L,0.4;1.6,0.335,threat,male,21,10,10,9,16,15,39
human,14,1,1,77,Visual,TB,0.4;0.6;0.8;1;1.2;1.4;1.6,1.4,L,0.4;1.6,0.368,threat,male,21,10,10,9,16,15,39
human,14,1,1,78,Visual,TB,0.4;0.6;0.8;1;1.2;1.4;1.6,1.4,L,0.4;1.6,2.253,neutral,male,21,10,10,9,16,15,39
human,14,1,1,79,Visual,TB,0.4;0.6;0.8;1;1.2;1.4;1.6,1.4,L,0.4;1.6,0.386,neutral,male,21,10,10,9,16,15,39
human,14,1,1,80,Visual,TB,0.4;0.6;0.8;1;1.2;1.4;1.6,1.4,L,0.4;1.6,0.269,neutral,male,21,10,10,9,16,15,39
human,14,1,1,81,Visual,TB,0.4;0.6;0.8;1;1.2;1.4;1.6,1.4,L,0.4;1.6,0.28,neutral,male,21,10,10,9,16,15,39
human,14,1,1,82,Visual,TB,0.4;0.6;0.8;1;1.2;1.4;1.6,1.4,L,0.4;1.6,0.688,neutral,male,21,10,10,9,16,15,39
human,14,1,1,83,Visual,TB,0.4;0.6;0.8;1;1.2;1.4;1.6,1.4,L,0.4;1.6,0.275,neutral,male,21,10,10,9,16,15,39
human,14,1,1,84,Visual,TB,0.4;0.6;0.8;1;1.2;1.4;1.6,1.4,L,0.4;1.6,0.528,neutral,male,21,10,10,9,16,15,39
human,14,1,1,85,Visual,TB,0.4;0.6;0.8;1;1.2;1.4;1.6,1.6,L,0.4;1.6,0.294,threat,male,21,10,10,9,16,15,39
human,14,1,1,86,Visual,TB,0.4;0.6;0.8;1;1.2;1.4;1.6,1.6,L,0.4;1.6,0.298,threat,male,21,10,10,9,16,15,39
human,14,1,1,87,Visual,TB,0.4;0.6;0.8;1;1.2;1.4;1.6,1.6,L,0.4;1.6,0.257,threat,male,21,10,10,9,16,15,39
human,14,1,1,88,Visual,TB,0.4;0.6;0.8;1;1.2;1.4;1.6,1.6,L,0.4;1.6,0.222,threat,male,21,10,10,9,16,15,39
human,14,1,1,89,Visual,TB,0.4;0.6;0.8;1;1.2;1.4;1.6,1.6,L,0.4;1.6,0.276,threat,male,21,10,10,9,16,15,39
human,14,1,1,90,Visual,TB,0.4;0.6;0.8;1;1.2;1.4;1.6,1.6,L,0.4;1.6,0.249,neutral,male,21,10,10,9,16,15,39
human,14,1,1,91,Visual,TB,0.4;0.6;0.8;1;1.2;1.4;1.6,1.6,L,0.4;1.6,0.25,neutral,male,21,10,10,9,16,15,39
human,14,1,1,92,Visual,TB,0.4;0.6;0.8;1;1.2;1.4;1.6,1.6,L,0.4;1.6,0.482,neutral,male,21,10,10,9,16,15,39
human,14,1,1,93,Visual,TB,0.4;0.6;0.8;1;1.2;1.4;1.6,1.6,L,0.4;1.6,0.335,neutral,male,21,10,10,9,16,15,39
human,14,1,1,94,Visual,TB,0.4;0.6;0.8;1;1.2;1.4;1.6,1.6,L,0.4;1.6,0.341,neutral,male,21,10,10,9,16,15,39
human,14,1,1,95,Visual,TB,0.4;0.6;0.8;1;1.2;1.4;1.6,1.6,L,0.4;1.6,0.271,neutral,male,21,10,10,9,16,15,39
human,14,1,1,96,Visual,TB,0.4;0.6;0.8;1;1.2;1.4;1.6,1.6,L,0.4;1.6,0.261,neutral,male,21,10,10,9,16,15,39
human,14,1,1,97,Visual,TB,0.4;0.6;0.8;1;1.2;1.4;1.6,1.6,L,0.4;1.6,0.267,threat,male,21,10,10,9,16,15,39
human,14,1,1,98,Visual,TB,0.4;0.6;0.8;1;1.2;1.4;1.6,1.6,L,0.4;1.6,0.582,threat,male,21,10,10,9,16,15,39
human,15,1,1,1,Visual,TB,0.4;0.6;0.8;1;1.2;1.4;1.6,0.4,S,0.4;1.6,0.69,threat,male,20,9,7,11,14,9,36
human,15,1,1,2,Visual,TB,0.4;0.6;0.8;1;1.2;1.4;1.6,0.4,S,0.4;1.6,0.959,threat,male,20,9,7,11,14,9,36
human,15,1,1,3,Visual,TB,0.4;0.6;0.8;1;1.2;1.4;1.6,0.4,S,0.4;1.6,0.544,threat,male,20,9,7,11,14,9,36
human,15,1,1,4,Visual,TB,0.4;0.6;0.8;1;1.2;1.4;1.6,0.4,S,0.4;1.6,0.759,threat,male,20,9,7,11,14,9,36
human,15,1,1,5,Visual,TB,0.4;0.6;0.8;1;1.2;1.4;1.6,0.4,S,0.4;1.6,0.553,threat,male,20,9,7,11,14,9,36
human,15,1,1,6,Visual,TB,0.4;0.6;0.8;1;1.2;1.4;1.6,0.4,S,0.4;1.6,0.442,threat,male,20,9,7,11,14,9,36
human,15,1,1,7,Visual,TB,0.4;0.6;0.8;1;1.2;1.4;1.6,0.4,S,0.4;1.6,0.607,neutral,male,20,9,7,11,14,9,36
human,15,1,1,8,Visual,TB,0.4;0.6;0.8;1;1.2;1.4;1.6,0.4,S,0.4;1.6,0.564,neutral,male,20,9,7,11,14,9,36
human,15,1,1,9,Visual,TB,0.4;0.6;0.8;1;1.2;1.4;1.6,0.4,S,0.4;1.6,0.645,neutral,male,20,9,7,11,14,9,36
human,15,1,1,10,Visual,TB,0.4;0.6;0.8;1;1.2;1.4;1.6,0.4,S,0.4;1.6,0.77,neutral,male,20,9,7,11,14,9,36
human,15,1,1,11,Visual,TB,0.4;0.6;0.8;1;1.2;1.4;1.6,0.4,S,0.4;1.6,0.795,neutral,male,20,9,7,11,14,9,36
human,15,1,1,12,Visual,TB,0.4;0.6;0.8;1;1.2;1.4;1.6,0.4,S,0.4;1.6,0.448,neutral,male,20,9,7,11,14,9,36
human,15,1,1,13,Visual,TB,0.4;0.6;0.8;1;1.2;1.4;1.6,0.4,S,0.4;1.6,0.548,neutral,male,20,9,7,11,14,9,36
human,15,1,1,14,Visual,TB,0.4;0.6;0.8;1;1.2;1.4;1.6,0.4,S,0.4;1.6,0.562,threat,male,20,9,7,11,14,9,36
human,15,1,1,15,Visual,TB,0.4;0.6;0.8;1;1.2;1.4;1.6,0.6,S,0.4;1.6,0.482,threat,male,20,9,7,11,14,9,36
human,15,1,1,16,Visual,TB,0.4;0.6;0.8;1;1.2;1.4;1.6,0.6,S,0.4;1.6,0.5,threat,male,20,9,7,11,14,9,36
human,15,1,1,17,Visual,TB,0.4;0.6;0.8;1;1.2;1.4;1.6,0.6,S,0.4;1.6,0.748,threat,male,20,9,7,11,14,9,36
human,15,1,1,18,Visual,TB,0.4;0.6;0.8;1;1.2;1.4;1.6,0.6,S,0.4;1.6,0.494,threat,male,20,9,7,11,14,9,36
human,15,1,1,19,Visual,TB,0.4;0.6;0.8;1;1.2;1.4;1.6,0.6,S,0.4;1.6,0.841,threat,male,20,9,7,11,14,9,36
human,15,1,1,20,Visual,TB,0.4;0.6;0.8;1;1.2;1.4;1.6,0.6,S,0.4;1.6,1.066,threat,male,20,9,7,11,14,9,36
human,15,1,1,21,Visual,TB,0.4;0.6;0.8;1;1.2;1.4;1.6,0.6,S,0.4;1.6,0.661,neutral,male,20,9,7,11,14,9,36
human,15,1,1,22,Visual,TB,0.4;0.6;0.8;1;1.2;1.4;1.6,0.6,S,0.4;1.6,0.613,neutral,male,20,9,7,11,14,9,36
human,15,1,1,23,Visual,TB,0.4;0.6;0.8;1;1.2;1.4;1.6,0.6,S,0.4;1.6,0.511,neutral,male,20,9,7,11,14,9,36
human,15,1,1,24,Visual,TB,0.4;0.6;0.8;1;1.2;1.4;1.6,0.6,S,0.4;1.6,1.135,neutral,male,20,9,7,11,14,9,36
human,15,1,1,25,Visual,TB,0.4;0.6;0.8;1;1.2;1.4;1.6,0.6,S,0.4;1.6,0.757,neutral,male,20,9,7,11,14,9,36
human,15,1,1,26,Visual,TB,0.4;0.6;0.8;1;1.2;1.4;1.6,0.6,L,0.4;1.6,0.69,neutral,male,20,9,7,11,14,9,36
human,15,1,1,27,Visual,TB,0.4;0.6;0.8;1;1.2;1.4;1.6,0.6,S,0.4;1.6,0.617,neutral,male,20,9,7,11,14,9,36
human,15,1,1,28,Visual,TB,0.4;0.6;0.8;1;1.2;1.4;1.6,0.6,S,0.4;1.6,0.622,threat,male,20,9,7,11,14,9,36
human,15,1,1,29,Visual,TB,0.4;0.6;0.8;1;1.2;1.4;1.6,0.8,S,0.4;1.6,0.773,threat,male,20,9,7,11,14,9,36
human,15,1,1,30,Visual,TB,0.4;0.6;0.8;1;1.2;1.4;1.6,0.8,S,0.4;1.6,0.54,threat,male,20,9,7,11,14,9,36
human,15,1,1,31,Visual,TB,0.4;0.6;0.8;1;1.2;1.4;1.6,0.8,S,0.4;1.6,0.913,threat,male,20,9,7,11,14,9,36
human,15,1,1,32,Visual,TB,0.4;0.6;0.8;1;1.2;1.4;1.6,0.8,S,0.4;1.6,1.162,threat,male,20,9,7,11,14,9,36
human,15,1,1,33,Visual,TB,0.4;0.6;0.8;1;1.2;1.4;1.6,0.8,S,0.4;1.6,0.603,threat,male,20,9,7,11,14,9,36
human,15,1,1,34,Visual,TB,0.4;0.6;0.8;1;1.2;1.4;1.6,0.8,S,0.4;1.6,0.659,threat,male,20,9,7,11,14,9,36
human,15,1,1,35,Visual,TB,0.4;0.6;0.8;1;1.2;1.4;1.6,0.8,S,0.4;1.6,0.785,neutral,male,20,9,7,11,14,9,36
human,15,1,1,36,Visual,TB,0.4;0.6;0.8;1;1.2;1.4;1.6,0.8,S,0.4;1.6,0.59,neutral,male,20,9,7,11,14,9,36
human,15,1,1,37,Visual,TB,0.4;0.6;0.8;1;1.2;1.4;1.6,0.8,S,0.4;1.6,0.615,neutral,male,20,9,7,11,14,9,36
human,15,1,1,38,Visual,TB,0.4;0.6;0.8;1;1.2;1.4;1.6,0.8,L,0.4;1.6,1.029,neutral,male,20,9,7,11,14,9,36
human,15,1,1,39,Visual,TB,0.4;0.6;0.8;1;1.2;1.4;1.6,0.8,S,0.4;1.6,1.088,neutral,male,20,9,7,11,14,9,36
human,15,1,1,40,Visual,TB,0.4;0.6;0.8;1;1.2;1.4;1.6,0.8,S,0.4;1.6,0.749,neutral,male,20,9,7,11,14,9,36
human,15,1,1,41,Visual,TB,0.4;0.6;0.8;1;1.2;1.4;1.6,0.8,S,0.4;1.6,1.089,neutral,male,20,9,7,11,14,9,36
human,15,1,1,42,Visual,TB,0.4;0.6;0.8;1;1.2;1.4;1.6,0.8,S,0.4;1.6,1.037,threat,male,20,9,7,11,14,9,36
human,15,1,1,43,Visual,TB,0.4;0.6;0.8;1;1.2;1.4;1.6,1,S,0.4;1.6,1.514,threat,male,20,9,7,11,14,9,36
human,15,1,1,44,Visual,TB,0.4;0.6;0.8;1;1.2;1.4;1.6,1,S,0.4;1.6,0.779,threat,male,20,9,7,11,14,9,36
human,15,1,1,45,Visual,TB,0.4;0.6;0.8;1;1.2;1.4;1.6,1,S,0.4;1.6,0.769,threat,male,20,9,7,11,14,9,36
human,15,1,1,46,Visual,TB,0.4;0.6;0.8;1;1.2;1.4;1.6,1,S,0.4;1.6,1.435,threat,male,20,9,7,11,14,9,36
human,15,1,1,47,Visual,TB,0.4;0.6;0.8;1;1.2;1.4;1.6,1,L,0.4;1.6,2.213,threat,male,20,9,7,11,14,9,36
human,15,1,1,48,Visual,TB,0.4;0.6;0.8;1;1.2;1.4;1.6,1,S,0.4;1.6,0.872,threat,male,20,9,7,11,14,9,36
human,15,1,1,49,Visual,TB,0.4;0.6;0.8;1;1.2;1.4;1.6,1,S,0.4;1.6,0.958,neutral,male,20,9,7,11,14,9,36
human,15,1,1,50,Visual,TB,0.4;0.6;0.8;1;1.2;1.4;1.6,1,S,0.4;1.6,1.37,neutral,male,20,9,7,11,14,9,36
human,15,1,1,51,Visual,TB,0.4;0.6;0.8;1;1.2;1.4;1.6,1,S,0.4;1.6,1.036,neutral,male,20,9,7,11,14,9,36
human,15,1,1,52,Visual,TB,0.4;0.6;0.8;1;1.2;1.4;1.6,1,L,0.4;1.6,1.046,neutral,male,20,9,7,11,14,9,36
human,15,1,1,53,Visual,TB,0.4;0.6;0.8;1;1.2;1.4;1.6,1,L,0.4;1.6,1.213,neutral,male,20,9,7,11,14,9,36
human,15,1,1,54,Visual,TB,0.4;0.6;0.8;1;1.2;1.4;1.6,1,S,0.4;1.6,1.586,neutral,male,20,9,7,11,14,9,36
human,15,1,1,55,Visual,TB,0.4;0.6;0.8;1;1.2;1.4;1.6,1,S,0.4;1.6,0.533,neutral,male,20,9,7,11,14,9,36
human,15,1,1,56,Visual,TB,0.4;0.6;0.8;1;1.2;1.4;1.6,1,S,0.4;1.6,0.999,threat,male,20,9,7,11,14,9,36
human,15,1,1,57,Visual,TB,0.4;0.6;0.8;1;1.2;1.4;1.6,1.2,L,0.4;1.6,0.704,threat,male,20,9,7,11,14,9,36
human,15,1,1,58,Visual,TB,0.4;0.6;0.8;1;1.2;1.4;1.6,1.2,L,0.4;1.6,1.138,threat,male,20,9,7,11,14,9,36
human,15,1,1,59,Visual,TB,0.4;0.6;0.8;1;1.2;1.4;1.6,1.2,L,0.4;1.6,0.918,threat,male,20,9,7,11,14,9,36
human,15,1,1,60,Visual,TB,0.4;0.6;0.8;1;1.2;1.4;1.6,1.2,L,0.4;1.6,0.899,threat,male,20,9,7,11,14,9,36
human,15,1,1,61,Visual,TB,0.4;0.6;0.8;1;1.2;1.4;1.6,1.2,L,0.4;1.6,1.039,threat,male,20,9,7,11,14,9,36
human,15,1,1,62,Visual,TB,0.4;0.6;0.8;1;1.2;1.4;1.6,1.2,L,0.4;1.6,1.277,threat,male,20,9,7,11,14,9,36
human,15,1,1,63,Visual,TB,0.4;0.6;0.8;1;1.2;1.4;1.6,1.2,L,0.4;1.6,0.505,neutral,male,20,9,7,11,14,9,36
human,15,1,1,64,Visual,TB,0.4;0.6;0.8;1;1.2;1.4;1.6,1.2,S,0.4;1.6,0.865,neutral,male,20,9,7,11,14,9,36
human,15,1,1,65,Visual,TB,0.4;0.6;0.8;1;1.2;1.4;1.6,1.2,S,0.4;1.6,1.403,neutral,male,20,9,7,11,14,9,36
human,15,1,1,66,Visual,TB,0.4;0.6;0.8;1;1.2;1.4;1.6,1.2,S,0.4;1.6,0.78,neutral,male,20,9,7,11,14,9,36
human,15,1,1,67,Visual,TB,0.4;0.6;0.8;1;1.2;1.4;1.6,1.2,L,0.4;1.6,1.591,neutral,male,20,9,7,11,14,9,36
human,15,1,1,68,Visual,TB,0.4;0.6;0.8;1;1.2;1.4;1.6,1.2,L,0.4;1.6,0.685,neutral,male,20,9,7,11,14,9,36
human,15,1,1,69,Visual,TB,0.4;0.6;0.8;1;1.2;1.4;1.6,1.2,L,0.4;1.6,1.553,neutral,male,20,9,7,11,14,9,36
human,15,1,1,70,Visual,TB,0.4;0.6;0.8;1;1.2;1.4;1.6,1.2,L,0.4;1.6,0.818,threat,male,20,9,7,11,14,9,36
human,15,1,1,71,Visual,TB,0.4;0.6;0.8;1;1.2;1.4;1.6,1.4,L,0.4;1.6,0.626,threat,male,20,9,7,11,14,9,36
human,15,1,1,72,Visual,TB,0.4;0.6;0.8;1;1.2;1.4;1.6,1.4,L,0.4;1.6,0.762,threat,male,20,9,7,11,14,9,36
human,15,1,1,73,Visual,TB,0.4;0.6;0.8;1;1.2;1.4;1.6,1.4,L,0.4;1.6,1.004,threat,male,20,9,7,11,14,9,36
human,15,1,1,74,Visual,TB,0.4;0.6;0.8;1;1.2;1.4;1.6,1.4,L,0.4;1.6,0.436,threat,male,20,9,7,11,14,9,36
human,15,1,1,75,Visual,TB,0.4;0.6;0.8;1;1.2;1.4;1.6,1.4,L,0.4;1.6,0.578,threat,male,20,9,7,11,14,9,36
human,15,1,1,76,Visual,TB,0.4;0.6;0.8;1;1.2;1.4;1.6,1.4,L,0.4;1.6,0.834,threat,male,20,9,7,11,14,9,36
human,15,1,1,77,Visual,TB,0.4;0.6;0.8;1;1.2;1.4;1.6,1.4,L,0.4;1.6,0.932,threat,male,20,9,7,11,14,9,36
human,15,1,1,78,Visual,TB,0.4;0.6;0.8;1;1.2;1.4;1.6,1.4,S,0.4;1.6,0.809,neutral,male,20,9,7,11,14,9,36
human,15,1,1,79,Visual,TB,0.4;0.6;0.8;1;1.2;1.4;1.6,1.4,L,0.4;1.6,0.779,neutral,male,20,9,7,11,14,9,36
human,15,1,1,80,Visual,TB,0.4;0.6;0.8;1;1.2;1.4;1.6,1.4,S,0.4;1.6,0.89,neutral,male,20,9,7,11,14,9,36
human,15,1,1,81,Visual,TB,0.4;0.6;0.8;1;1.2;1.4;1.6,1.4,S,0.4;1.6,0.571,neutral,male,20,9,7,11,14,9,36
human,15,1,1,82,Visual,TB,0.4;0.6;0.8;1;1.2;1.4;1.6,1.4,L,0.4;1.6,0.862,neutral,male,20,9,7,11,14,9,36
human,15,1,1,83,Visual,TB,0.4;0.6;0.8;1;1.2;1.4;1.6,1.4,L,0.4;1.6,1.123,neutral,male,20,9,7,11,14,9,36
human,15,1,1,84,Visual,TB,0.4;0.6;0.8;1;1.2;1.4;1.6,1.4,L,0.4;1.6,1.25,neutral,male,20,9,7,11,14,9,36
human,15,1,1,85,Visual,TB,0.4;0.6;0.8;1;1.2;1.4;1.6,1.6,L,0.4;1.6,0.534,threat,male,20,9,7,11,14,9,36
human,15,1,1,86,Visual,TB,0.4;0.6;0.8;1;1.2;1.4;1.6,1.6,L,0.4;1.6,0.615,threat,male,20,9,7,11,14,9,36
human,15,1,1,87,Visual,TB,0.4;0.6;0.8;1;1.2;1.4;1.6,1.6,L,0.4;1.6,0.789,threat,male,20,9,7,11,14,9,36
human,15,1,1,88,Visual,TB,0.4;0.6;0.8;1;1.2;1.4;1.6,1.6,L,0.4;1.6,0.451,threat,male,20,9,7,11,14,9,36
human,15,1,1,89,Visual,TB,0.4;0.6;0.8;1;1.2;1.4;1.6,1.6,L,0.4;1.6,0.738,threat,male,20,9,7,11,14,9,36
human,15,1,1,90,Visual,TB,0.4;0.6;0.8;1;1.2;1.4;1.6,1.6,L,0.4;1.6,0.555,neutral,male,20,9,7,11,14,9,36
human,15,1,1,91,Visual,TB,0.4;0.6;0.8;1;1.2;1.4;1.6,1.6,L,0.4;1.6,1.398,neutral,male,20,9,7,11,14,9,36
human,15,1,1,92,Visual,TB,0.4;0.6;0.8;1;1.2;1.4;1.6,1.6,L,0.4;1.6,0.55,neutral,male,20,9,7,11,14,9,36
human,15,1,1,93,Visual,TB,0.4;0.6;0.8;1;1.2;1.4;1.6,1.6,L,0.4;1.6,0.674,neutral,male,20,9,7,11,14,9,36
human,15,1,1,94,Visual,TB,0.4;0.6;0.8;1;1.2;1.4;1.6,1.6,L,0.4;1.6,0.567,neutral,male,20,9,7,11,14,9,36
human,15,1,1,95,Visual,TB,0.4;0.6;0.8;1;1.2;1.4;1.6,1.6,S,0.4;1.6,0.657,neutral,male,20,9,7,11,14,9,36
human,15,1,1,96,Visual,TB,0.4;0.6;0.8;1;1.2;1.4;1.6,1.6,L,0.4;1.6,0.491,neutral,male,20,9,7,11,14,9,36
human,15,1,1,97,Visual,TB,0.4;0.6;0.8;1;1.2;1.4;1.6,1.6,L,0.4;1.6,0.842,threat,male,20,9,7,11,14,9,36
human,15,1,1,98,Visual,TB,0.4;0.6;0.8;1;1.2;1.4;1.6,1.6,S,0.4;1.6,2.196,threat,male,20,9,7,11,14,9,36
human,16,1,1,1,Visual,TB,0.4;0.6;0.8;1;1.2;1.4;1.6,0.4,S,0.4;1.6,0.552,threat,female,20,11,12,9,12,10,43
human,16,1,1,2,Visual,TB,0.4;0.6;0.8;1;1.2;1.4;1.6,0.4,S,0.4;1.6,0.607,threat,female,20,11,12,9,12,10,43
human,16,1,1,3,Visual,TB,0.4;0.6;0.8;1;1.2;1.4;1.6,0.4,S,0.4;1.6,0.537,threat,female,20,11,12,9,12,10,43
human,16,1,1,4,Visual,TB,0.4;0.6;0.8;1;1.2;1.4;1.6,0.4,S,0.4;1.6,0.626,threat,female,20,11,12,9,12,10,43
human,16,1,1,5,Visual,TB,0.4;0.6;0.8;1;1.2;1.4;1.6,0.4,S,0.4;1.6,0.637,threat,female,20,11,12,9,12,10,43
human,16,1,1,6,Visual,TB,0.4;0.6;0.8;1;1.2;1.4;1.6,0.4,S,0.4;1.6,0.517,threat,female,20,11,12,9,12,10,43
human,16,1,1,7,Visual,TB,0.4;0.6;0.8;1;1.2;1.4;1.6,0.4,S,0.4;1.6,0.704,neutral,female,20,11,12,9,12,10,43
human,16,1,1,8,Visual,TB,0.4;0.6;0.8;1;1.2;1.4;1.6,0.4,S,0.4;1.6,0.567,neutral,female,20,11,12,9,12,10,43
human,16,1,1,9,Visual,TB,0.4;0.6;0.8;1;1.2;1.4;1.6,0.4,S,0.4;1.6,0.854,neutral,female,20,11,12,9,12,10,43
human,16,1,1,10,Visual,TB,0.4;0.6;0.8;1;1.2;1.4;1.6,0.4,S,0.4;1.6,0.477,neutral,female,20,11,12,9,12,10,43
human,16,1,1,11,Visual,TB,0.4;0.6;0.8;1;1.2;1.4;1.6,0.4,S,0.4;1.6,0.696,neutral,female,20,11,12,9,12,10,43
human,16,1,1,12,Visual,TB,0.4;0.6;0.8;1;1.2;1.4;1.6,0.4,S,0.4;1.6,0.884,neutral,female,20,11,12,9,12,10,43
human,16,1,1,13,Visual,TB,0.4;0.6;0.8;1;1.2;1.4;1.6,0.4,S,0.4;1.6,0.697,neutral,female,20,11,12,9,12,10,43
human,16,1,1,14,Visual,TB,0.4;0.6;0.8;1;1.2;1.4;1.6,0.4,S,0.4;1.6,0.484,threat,female,20,11,12,9,12,10,43
human,16,1,1,15,Visual,TB,0.4;0.6;0.8;1;1.2;1.4;1.6,0.6,S,0.4;1.6,0.598,threat,female,20,11,12,9,12,10,43
human,16,1,1,16,Visual,TB,0.4;0.6;0.8;1;1.2;1.4;1.6,0.6,S,0.4;1.6,0.608,threat,female,20,11,12,9,12,10,43
human,16,1,1,17,Visual,TB,0.4;0.6;0.8;1;1.2;1.4;1.6,0.6,S,0.4;1.6,0.775,threat,female,20,11,12,9,12,10,43
human,16,1,1,18,Visual,TB,0.4;0.6;0.8;1;1.2;1.4;1.6,0.6,S,0.4;1.6,0.564,threat,female,20,11,12,9,12,10,43
human,16,1,1,19,Visual,TB,0.4;0.6;0.8;1;1.2;1.4;1.6,0.6,S,0.4;1.6,0.903,threat,female,20,11,12,9,12,10,43
human,16,1,1,20,Visual,TB,0.4;0.6;0.8;1;1.2;1.4;1.6,0.6,S,0.4;1.6,0.512,threat,female,20,11,12,9,12,10,43
human,16,1,1,21,Visual,TB,0.4;0.6;0.8;1;1.2;1.4;1.6,0.6,S,0.4;1.6,0.582,neutral,female,20,11,12,9,12,10,43
human,16,1,1,22,Visual,TB,0.4;0.6;0.8;1;1.2;1.4;1.6,0.6,S,0.4;1.6,0.675,neutral,female,20,11,12,9,12,10,43
human,16,1,1,23,Visual,TB,0.4;0.6;0.8;1;1.2;1.4;1.6,0.6,S,0.4;1.6,0.567,neutral,female,20,11,12,9,12,10,43
human,16,1,1,24,Visual,TB,0.4;0.6;0.8;1;1.2;1.4;1.6,0.6,S,0.4;1.6,0.786,neutral,female,20,11,12,9,12,10,43
human,16,1,1,25,Visual,TB,0.4;0.6;0.8;1;1.2;1.4;1.6,0.6,S,0.4;1.6,0.603,neutral,female,20,11,12,9,12,10,43
human,16,1,1,26,Visual,TB,0.4;0.6;0.8;1;1.2;1.4;1.6,0.6,S,0.4;1.6,0.463,neutral,female,20,11,12,9,12,10,43
human,16,1,1,27,Visual,TB,0.4;0.6;0.8;1;1.2;1.4;1.6,0.6,S,0.4;1.6,0.572,neutral,female,20,11,12,9,12,10,43
human,16,1,1,28,Visual,TB,0.4;0.6;0.8;1;1.2;1.4;1.6,0.6,S,0.4;1.6,0.554,threat,female,20,11,12,9,12,10,43
human,16,1,1,29,Visual,TB,0.4;0.6;0.8;1;1.2;1.4;1.6,0.8,S,0.4;1.6,0.55,threat,female,20,11,12,9,12,10,43
human,16,1,1,30,Visual,TB,0.4;0.6;0.8;1;1.2;1.4;1.6,0.8,S,0.4;1.6,0.652,threat,female,20,11,12,9,12,10,43
human,16,1,1,31,Visual,TB,0.4;0.6;0.8;1;1.2;1.4;1.6,0.8,S,0.4;1.6,0.517,threat,female,20,11,12,9,12,10,43
human,16,1,1,32,Visual,TB,0.4;0.6;0.8;1;1.2;1.4;1.6,0.8,S,0.4;1.6,0.959,threat,female,20,11,12,9,12,10,43
human,16,1,1,33,Visual,TB,0.4;0.6;0.8;1;1.2;1.4;1.6,0.8,S,0.4;1.6,0.593,threat,female,20,11,12,9,12,10,43
human,16,1,1,34,Visual,TB,0.4;0.6;0.8;1;1.2;1.4;1.6,0.8,S,0.4;1.6,0.901,threat,female,20,11,12,9,12,10,43
human,16,1,1,35,Visual,TB,0.4;0.6;0.8;1;1.2;1.4;1.6,0.8,L,0.4;1.6,3.325,neutral,female,20,11,12,9,12,10,43
human,16,1,1,36,Visual,TB,0.4;0.6;0.8;1;1.2;1.4;1.6,0.8,S,0.4;1.6,0.884,neutral,female,20,11,12,9,12,10,43
human,16,1,1,37,Visual,TB,0.4;0.6;0.8;1;1.2;1.4;1.6,0.8,S,0.4;1.6,0.495,neutral,female,20,11,12,9,12,10,43
human,16,1,1,38,Visual,TB,0.4;0.6;0.8;1;1.2;1.4;1.6,0.8,S,0.4;1.6,0.555,neutral,female,20,11,12,9,12,10,43
human,16,1,1,39,Visual,TB,0.4;0.6;0.8;1;1.2;1.4;1.6,0.8,S,0.4;1.6,2.64,neutral,female,20,11,12,9,12,10,43
human,16,1,1,40,Visual,TB,0.4;0.6;0.8;1;1.2;1.4;1.6,0.8,S,0.4;1.6,0.74,neutral,female,20,11,12,9,12,10,43
human,16,1,1,41,Visual,TB,0.4;0.6;0.8;1;1.2;1.4;1.6,0.8,S,0.4;1.6,1.632,neutral,female,20,11,12,9,12,10,43
human,16,1,1,42,Visual,TB,0.4;0.6;0.8;1;1.2;1.4;1.6,0.8,S,0.4;1.6,0.577,threat,female,20,11,12,9,12,10,43
human,16,1,1,43,Visual,TB,0.4;0.6;0.8;1;1.2;1.4;1.6,1,S,0.4;1.6,0.849,threat,female,20,11,12,9,12,10,43
human,16,1,1,44,Visual,TB,0.4;0.6;0.8;1;1.2;1.4;1.6,1,L,0.4;1.6,1.209,threat,female,20,11,12,9,12,10,43
human,16,1,1,45,Visual,TB,0.4;0.6;0.8;1;1.2;1.4;1.6,1,L,0.4;1.6,0.407,threat,female,20,11,12,9,12,10,43
human,16,1,1,46,Visual,TB,0.4;0.6;0.8;1;1.2;1.4;1.6,1,L,0.4;1.6,0.617,threat,female,20,11,12,9,12,10,43
human,16,1,1,47,Visual,TB,0.4;0.6;0.8;1;1.2;1.4;1.6,1,L,0.4;1.6,1.574,threat,female,20,11,12,9,12,10,43
human,16,1,1,48,Visual,TB,0.4;0.6;0.8;1;1.2;1.4;1.6,1,S,0.4;1.6,0.855,threat,female,20,11,12,9,12,10,43
human,16,1,1,49,Visual,TB,0.4;0.6;0.8;1;1.2;1.4;1.6,1,L,0.4;1.6,0.638,neutral,female,20,11,12,9,12,10,43
human,16,1,1,50,Visual,TB,0.4;0.6;0.8;1;1.2;1.4;1.6,1,L,0.4;1.6,2.727,neutral,female,20,11,12,9,12,10,43
human,16,1,1,51,Visual,TB,0.4;0.6;0.8;1;1.2;1.4;1.6,1,S,0.4;1.6,1.314,neutral,female,20,11,12,9,12,10,43
human,16,1,1,52,Visual,TB,0.4;0.6;0.8;1;1.2;1.4;1.6,1,S,0.4;1.6,0.516,neutral,female,20,11,12,9,12,10,43
human,16,1,1,53,Visual,TB,0.4;0.6;0.8;1;1.2;1.4;1.6,1,S,0.4;1.6,1.006,neutral,female,20,11,12,9,12,10,43
human,16,1,1,54,Visual,TB,0.4;0.6;0.8;1;1.2;1.4;1.6,1,L,0.4;1.6,1.311,neutral,female,20,11,12,9,12,10,43
human,16,1,1,55,Visual,TB,0.4;0.6;0.8;1;1.2;1.4;1.6,1,S,0.4;1.6,1.814,neutral,female,20,11,12,9,12,10,43
human,16,1,1,56,Visual,TB,0.4;0.6;0.8;1;1.2;1.4;1.6,1,L,0.4;1.6,0.935,threat,female,20,11,12,9,12,10,43
human,16,1,1,57,Visual,TB,0.4;0.6;0.8;1;1.2;1.4;1.6,1.2,L,0.4;1.6,1.061,threat,female,20,11,12,9,12,10,43
human,16,1,1,58,Visual,TB,0.4;0.6;0.8;1;1.2;1.4;1.6,1.2,S,0.4;1.6,0.717,threat,female,20,11,12,9,12,10,43
human,16,1,1,59,Visual,TB,0.4;0.6;0.8;1;1.2;1.4;1.6,1.2,L,0.4;1.6,1.64,threat,female,20,11,12,9,12,10,43
human,16,1,1,60,Visual,TB,0.4;0.6;0.8;1;1.2;1.4;1.6,1.2,L,0.4;1.6,0.304,threat,female,20,11,12,9,12,10,43
human,16,1,1,61,Visual,TB,0.4;0.6;0.8;1;1.2;1.4;1.6,1.2,L,0.4;1.6,0.714,threat,female,20,11,12,9,12,10,43
human,16,1,1,62,Visual,TB,0.4;0.6;0.8;1;1.2;1.4;1.6,1.2,L,0.4;1.6,1.826,threat,female,20,11,12,9,12,10,43
human,16,1,1,63,Visual,TB,0.4;0.6;0.8;1;1.2;1.4;1.6,1.2,L,0.4;1.6,0.383,neutral,female,20,11,12,9,12,10,43
human,16,1,1,64,Visual,TB,0.4;0.6;0.8;1;1.2;1.4;1.6,1.2,L,0.4;1.6,0.927,neutral,female,20,11,12,9,12,10,43
human,16,1,1,65,Visual,TB,0.4;0.6;0.8;1;1.2;1.4;1.6,1.2,L,0.4;1.6,1.42,neutral,female,20,11,12,9,12,10,43
human,16,1,1,66,Visual,TB,0.4;0.6;0.8;1;1.2;1.4;1.6,1.2,L,0.4;1.6,2.23,neutral,female,20,11,12,9,12,10,43
human,16,1,1,67,Visual,TB,0.4;0.6;0.8;1;1.2;1.4;1.6,1.2,L,0.4;1.6,0.481,neutral,female,20,11,12,9,12,10,43
human,16,1,1,68,Visual,TB,0.4;0.6;0.8;1;1.2;1.4;1.6,1.2,L,0.4;1.6,0.662,neutral,female,20,11,12,9,12,10,43
human,16,1,1,69,Visual,TB,0.4;0.6;0.8;1;1.2;1.4;1.6,1.2,L,0.4;1.6,1.339,neutral,female,20,11,12,9,12,10,43
human,16,1,1,70,Visual,TB,0.4;0.6;0.8;1;1.2;1.4;1.6,1.2,L,0.4;1.6,0.808,threat,female,20,11,12,9,12,10,43
human,16,1,1,71,Visual,TB,0.4;0.6;0.8;1;1.2;1.4;1.6,1.4,L,0.4;1.6,0.974,threat,female,20,11,12,9,12,10,43
human,16,1,1,72,Visual,TB,0.4;0.6;0.8;1;1.2;1.4;1.6,1.4,L,0.4;1.6,0.53,threat,female,20,11,12,9,12,10,43
human,16,1,1,73,Visual,TB,0.4;0.6;0.8;1;1.2;1.4;1.6,1.4,L,0.4;1.6,1.13,threat,female,20,11,12,9,12,10,43
human,16,1,1,74,Visual,TB,0.4;0.6;0.8;1;1.2;1.4;1.6,1.4,L,0.4;1.6,0.38,threat,female,20,11,12,9,12,10,43
human,16,1,1,75,Visual,TB,0.4;0.6;0.8;1;1.2;1.4;1.6,1.4,L,0.4;1.6,0.552,threat,female,20,11,12,9,12,10,43
human,16,1,1,76,Visual,TB,0.4;0.6;0.8;1;1.2;1.4;1.6,1.4,L,0.4;1.6,0.5,threat,female,20,11,12,9,12,10,43
human,16,1,1,77,Visual,TB,0.4;0.6;0.8;1;1.2;1.4;1.6,1.4,L,0.4;1.6,0.505,threat,female,20,11,12,9,12,10,43
human,16,1,1,78,Visual,TB,0.4;0.6;0.8;1;1.2;1.4;1.6,1.4,L,0.4;1.6,0.622,neutral,female,20,11,12,9,12,10,43
human,16,1,1,79,Visual,TB,0.4;0.6;0.8;1;1.2;1.4;1.6,1.4,L,0.4;1.6,0.963,neutral,female,20,11,12,9,12,10,43
human,16,1,1,80,Visual,TB,0.4;0.6;0.8;1;1.2;1.4;1.6,1.4,L,0.4;1.6,1.036,neutral,female,20,11,12,9,12,10,43
human,16,1,1,81,Visual,TB,0.4;0.6;0.8;1;1.2;1.4;1.6,1.4,L,0.4;1.6,1.7,neutral,female,20,11,12,9,12,10,43
human,16,1,1,82,Visual,TB,0.4;0.6;0.8;1;1.2;1.4;1.6,1.4,L,0.4;1.6,0.722,neutral,female,20,11,12,9,12,10,43
human,16,1,1,83,Visual,TB,0.4;0.6;0.8;1;1.2;1.4;1.6,1.4,L,0.4;1.6,0.473,neutral,female,20,11,12,9,12,10,43
human,16,1,1,84,Visual,TB,0.4;0.6;0.8;1;1.2;1.4;1.6,1.4,L,0.4;1.6,0.556,neutral,female,20,11,12,9,12,10,43
human,16,1,1,85,Visual,TB,0.4;0.6;0.8;1;1.2;1.4;1.6,1.6,L,0.4;1.6,0.448,threat,female,20,11,12,9,12,10,43
human,16,1,1,86,Visual,TB,0.4;0.6;0.8;1;1.2;1.4;1.6,1.6,L,0.4;1.6,0.624,threat,female,20,11,12,9,12,10,43
human,16,1,1,87,Visual,TB,0.4;0.6;0.8;1;1.2;1.4;1.6,1.6,L,0.4;1.6,0.942,threat,female,20,11,12,9,12,10,43
human,16,1,1,88,Visual,TB,0.4;0.6;0.8;1;1.2;1.4;1.6,1.6,L,0.4;1.6,0.289,threat,female,20,11,12,9,12,10,43
human,16,1,1,89,Visual,TB,0.4;0.6;0.8;1;1.2;1.4;1.6,1.6,L,0.4;1.6,0.397,threat,female,20,11,12,9,12,10,43
human,16,1,1,90,Visual,TB,0.4;0.6;0.8;1;1.2;1.4;1.6,1.6,L,0.4;1.6,0.46,neutral,female,20,11,12,9,12,10,43
human,16,1,1,91,Visual,TB,0.4;0.6;0.8;1;1.2;1.4;1.6,1.6,L,0.4;1.6,0.471,neutral,female,20,11,12,9,12,10,43
human,16,1,1,92,Visual,TB,0.4;0.6;0.8;1;1.2;1.4;1.6,1.6,L,0.4;1.6,0.489,neutral,female,20,11,12,9,12,10,43
human,16,1,1,93,Visual,TB,0.4;0.6;0.8;1;1.2;1.4;1.6,1.6,L,0.4;1.6,1.047,neutral,female,20,11,12,9,12,10,43
human,16,1,1,94,Visual,TB,0.4;0.6;0.8;1;1.2;1.4;1.6,1.6,L,0.4;1.6,1.284,neutral,female,20,11,12,9,12,10,43
human,16,1,1,95,Visual,TB,0.4;0.6;0.8;1;1.2;1.4;1.6,1.6,L,0.4;1.6,0.381,neutral,female,20,11,12,9,12,10,43
human,16,1,1,96,Visual,TB,0.4;0.6;0.8;1;1.2;1.4;1.6,1.6,S,0.4;1.6,0.691,neutral,female,20,11,12,9,12,10,43
human,16,1,1,97,Visual,TB,0.4;0.6;0.8;1;1.2;1.4;1.6,1.6,L,0.4;1.6,0.515,threat,female,20,11,12,9,12,10,43
human,16,1,1,98,Visual,TB,0.4;0.6;0.8;1;1.2;1.4;1.6,1.6,L,0.4;1.6,0.535,threat,female,20,11,12,9,12,10,43
human,17,1,1,1,Visual,TB,0.4;0.6;0.8;1;1.2;1.4;1.6,0.4,S,0.4;1.6,0.648,threat,female,22,9,8,9,14,11,48
human,17,1,1,2,Visual,TB,0.4;0.6;0.8;1;1.2;1.4;1.6,0.4,S,0.4;1.6,1.256,threat,female,22,9,8,9,14,11,48
human,17,1,1,3,Visual,TB,0.4;0.6;0.8;1;1.2;1.4;1.6,0.4,S,0.4;1.6,0.491,threat,female,22,9,8,9,14,11,48
human,17,1,1,4,Visual,TB,0.4;0.6;0.8;1;1.2;1.4;1.6,0.4,S,0.4;1.6,0.422,threat,female,22,9,8,9,14,11,48
human,17,1,1,5,Visual,TB,0.4;0.6;0.8;1;1.2;1.4;1.6,0.4,S,0.4;1.6,0.348,threat,female,22,9,8,9,14,11,48
human,17,1,1,6,Visual,TB,0.4;0.6;0.8;1;1.2;1.4;1.6,0.4,S,0.4;1.6,0.576,threat,female,22,9,8,9,14,11,48
human,17,1,1,7,Visual,TB,0.4;0.6;0.8;1;1.2;1.4;1.6,0.4,S,0.4;1.6,0.572,neutral,female,22,9,8,9,14,11,48
human,17,1,1,8,Visual,TB,0.4;0.6;0.8;1;1.2;1.4;1.6,0.4,S,0.4;1.6,0.514,neutral,female,22,9,8,9,14,11,48
human,17,1,1,9,Visual,TB,0.4;0.6;0.8;1;1.2;1.4;1.6,0.4,S,0.4;1.6,0.907,neutral,female,22,9,8,9,14,11,48
human,17,1,1,10,Visual,TB,0.4;0.6;0.8;1;1.2;1.4;1.6,0.4,S,0.4;1.6,0.439,neutral,female,22,9,8,9,14,11,48
human,17,1,1,11,Visual,TB,0.4;0.6;0.8;1;1.2;1.4;1.6,0.4,S,0.4;1.6,0.487,neutral,female,22,9,8,9,14,11,48
human,17,1,1,12,Visual,TB,0.4;0.6;0.8;1;1.2;1.4;1.6,0.4,S,0.4;1.6,0.429,neutral,female,22,9,8,9,14,11,48
human,17,1,1,13,Visual,TB,0.4;0.6;0.8;1;1.2;1.4;1.6,0.4,S,0.4;1.6,0.929,neutral,female,22,9,8,9,14,11,48
human,17,1,1,14,Visual,TB,0.4;0.6;0.8;1;1.2;1.4;1.6,0.4,S,0.4;1.6,0.391,threat,female,22,9,8,9,14,11,48
human,17,1,1,15,Visual,TB,0.4;0.6;0.8;1;1.2;1.4;1.6,0.6,S,0.4;1.6,1.088,threat,female,22,9,8,9,14,11,48
human,17,1,1,16,Visual,TB,0.4;0.6;0.8;1;1.2;1.4;1.6,0.6,S,0.4;1.6,0.495,threat,female,22,9,8,9,14,11,48
human,17,1,1,17,Visual,TB,0.4;0.6;0.8;1;1.2;1.4;1.6,0.6,S,0.4;1.6,0.562,threat,female,22,9,8,9,14,11,48
human,17,1,1,18,Visual,TB,0.4;0.6;0.8;1;1.2;1.4;1.6,0.6,S,0.4;1.6,0.484,threat,female,22,9,8,9,14,11,48
human,17,1,1,19,Visual,TB,0.4;0.6;0.8;1;1.2;1.4;1.6,0.6,S,0.4;1.6,0.391,threat,female,22,9,8,9,14,11,48
human,17,1,1,20,Visual,TB,0.4;0.6;0.8;1;1.2;1.4;1.6,0.6,S,0.4;1.6,1.331,threat,female,22,9,8,9,14,11,48
human,17,1,1,21,Visual,TB,0.4;0.6;0.8;1;1.2;1.4;1.6,0.6,S,0.4;1.6,0.57,neutral,female,22,9,8,9,14,11,48
human,17,1,1,22,Visual,TB,0.4;0.6;0.8;1;1.2;1.4;1.6,0.6,S,0.4;1.6,0.712,neutral,female,22,9,8,9,14,11,48
human,17,1,1,23,Visual,TB,0.4;0.6;0.8;1;1.2;1.4;1.6,0.6,S,0.4;1.6,0.53,neutral,female,22,9,8,9,14,11,48
human,17,1,1,24,Visual,TB,0.4;0.6;0.8;1;1.2;1.4;1.6,0.6,S,0.4;1.6,0.653,neutral,female,22,9,8,9,14,11,48
human,17,1,1,25,Visual,TB,0.4;0.6;0.8;1;1.2;1.4;1.6,0.6,S,0.4;1.6,0.557,neutral,female,22,9,8,9,14,11,48
human,17,1,1,26,Visual,TB,0.4;0.6;0.8;1;1.2;1.4;1.6,0.6,S,0.4;1.6,0.44,neutral,female,22,9,8,9,14,11,48
human,17,1,1,27,Visual,TB,0.4;0.6;0.8;1;1.2;1.4;1.6,0.6,S,0.4;1.6,1.257,neutral,female,22,9,8,9,14,11,48
human,17,1,1,28,Visual,TB,0.4;0.6;0.8;1;1.2;1.4;1.6,0.6,S,0.4;1.6,0.427,threat,female,22,9,8,9,14,11,48
human,17,1,1,29,Visual,TB,0.4;0.6;0.8;1;1.2;1.4;1.6,0.8,S,0.4;1.6,0.647,threat,female,22,9,8,9,14,11,48
human,17,1,1,30,Visual,TB,0.4;0.6;0.8;1;1.2;1.4;1.6,0.8,L,0.4;1.6,0.684,threat,female,22,9,8,9,14,11,48
human,17,1,1,31,Visual,TB,0.4;0.6;0.8;1;1.2;1.4;1.6,0.8,L,0.4;1.6,0.626,threat,female,22,9,8,9,14,11,48
human,17,1,1,32,Visual,TB,0.4;0.6;0.8;1;1.2;1.4;1.6,0.8,L,0.4;1.6,0.771,threat,female,22,9,8,9,14,11,48
human,17,1,1,33,Visual,TB,0.4;0.6;0.8;1;1.2;1.4;1.6,0.8,S,0.4;1.6,1.126,threat,female,22,9,8,9,14,11,48
human,17,1,1,34,Visual,TB,0.4;0.6;0.8;1;1.2;1.4;1.6,0.8,S,0.4;1.6,0.73,threat,female,22,9,8,9,14,11,48
human,17,1,1,35,Visual,TB,0.4;0.6;0.8;1;1.2;1.4;1.6,0.8,S,0.4;1.6,0.751,neutral,female,22,9,8,9,14,11,48
human,17,1,1,36,Visual,TB,0.4;0.6;0.8;1;1.2;1.4;1.6,0.8,S,0.4;1.6,0.946,neutral,female,22,9,8,9,14,11,48
human,17,1,1,37,Visual,TB,0.4;0.6;0.8;1;1.2;1.4;1.6,0.8,S,0.4;1.6,0.582,neutral,female,22,9,8,9,14,11,48
human,17,1,1,38,Visual,TB,0.4;0.6;0.8;1;1.2;1.4;1.6,0.8,S,0.4;1.6,0.666,neutral,female,22,9,8,9,14,11,48
human,17,1,1,39,Visual,TB,0.4;0.6;0.8;1;1.2;1.4;1.6,0.8,L,0.4;1.6,1.72,neutral,female,22,9,8,9,14,11,48
human,17,1,1,40,Visual,TB,0.4;0.6;0.8;1;1.2;1.4;1.6,0.8,L,0.4;1.6,1.169,neutral,female,22,9,8,9,14,11,48
human,17,1,1,41,Visual,TB,0.4;0.6;0.8;1;1.2;1.4;1.6,0.8,S,0.4;1.6,0.998,neutral,female,22,9,8,9,14,11,48
human,17,1,1,42,Visual,TB,0.4;0.6;0.8;1;1.2;1.4;1.6,0.8,L,0.4;1.6,0.62,threat,female,22,9,8,9,14,11,48
human,17,1,1,43,Visual,TB,0.4;0.6;0.8;1;1.2;1.4;1.6,1,L,0.4;1.6,0.78,threat,female,22,9,8,9,14,11,48
human,17,1,1,44,Visual,TB,0.4;0.6;0.8;1;1.2;1.4;1.6,1,L,0.4;1.6,0.681,threat,female,22,9,8,9,14,11,48
human,17,1,1,45,Visual,TB,0.4;0.6;0.8;1;1.2;1.4;1.6,1,L,0.4;1.6,1.148,threat,female,22,9,8,9,14,11,48
human,17,1,1,46,Visual,TB,0.4;0.6;0.8;1;1.2;1.4;1.6,1,L,0.4;1.6,0.5,threat,female,22,9,8,9,14,11,48
human,17,1,1,47,Visual,TB,0.4;0.6;0.8;1;1.2;1.4;1.6,1,L,0.4;1.6,1.122,threat,female,22,9,8,9,14,11,48
human,17,1,1,48,Visual,TB,0.4;0.6;0.8;1;1.2;1.4;1.6,1,L,0.4;1.6,0.519,threat,female,22,9,8,9,14,11,48
human,17,1,1,49,Visual,TB,0.4;0.6;0.8;1;1.2;1.4;1.6,1,L,0.4;1.6,0.58,neutral,female,22,9,8,9,14,11,48
human,17,1,1,50,Visual,TB,0.4;0.6;0.8;1;1.2;1.4;1.6,1,L,0.4;1.6,0.769,neutral,female,22,9,8,9,14,11,48
human,17,1,1,51,Visual,TB,0.4;0.6;0.8;1;1.2;1.4;1.6,1,S,0.4;1.6,0.563,neutral,female,22,9,8,9,14,11,48
human,17,1,1,52,Visual,TB,0.4;0.6;0.8;1;1.2;1.4;1.6,1,S,0.4;1.6,1.057,neutral,female,22,9,8,9,14,11,48
human,17,1,1,53,Visual,TB,0.4;0.6;0.8;1;1.2;1.4;1.6,1,L,0.4;1.6,0.714,neutral,female,22,9,8,9,14,11,48
human,17,1,1,54,Visual,TB,0.4;0.6;0.8;1;1.2;1.4;1.6,1,L,0.4;1.6,1.225,neutral,female,22,9,8,9,14,11,48
human,17,1,1,55,Visual,TB,0.4;0.6;0.8;1;1.2;1.4;1.6,1,L,0.4;1.6,0.516,neutral,female,22,9,8,9,14,11,48
human,17,1,1,56,Visual,TB,0.4;0.6;0.8;1;1.2;1.4;1.6,1,L,0.4;1.6,0.542,threat,female,22,9,8,9,14,11,48
human,17,1,1,57,Visual,TB,0.4;0.6;0.8;1;1.2;1.4;1.6,1.2,L,0.4;1.6,0.426,threat,female,22,9,8,9,14,11,48
human,17,1,1,58,Visual,TB,0.4;0.6;0.8;1;1.2;1.4;1.6,1.2,L,0.4;1.6,1.053,threat,female,22,9,8,9,14,11,48
human,17,1,1,59,Visual,TB,0.4;0.6;0.8;1;1.2;1.4;1.6,1.2,L,0.4;1.6,0.701,threat,female,22,9,8,9,14,11,48
human,17,1,1,60,Visual,TB,0.4;0.6;0.8;1;1.2;1.4;1.6,1.2,L,0.4;1.6,0.877,threat,female,22,9,8,9,14,11,48
human,17,1,1,61,Visual,TB,0.4;0.6;0.8;1;1.2;1.4;1.6,1.2,L,0.4;1.6,0.712,threat,female,22,9,8,9,14,11,48
human,17,1,1,62,Visual,TB,0.4;0.6;0.8;1;1.2;1.4;1.6,1.2,L,0.4;1.6,0.747,threat,female,22,9,8,9,14,11,48
human,17,1,1,63,Visual,TB,0.4;0.6;0.8;1;1.2;1.4;1.6,1.2,L,0.4;1.6,0.698,neutral,female,22,9,8,9,14,11,48
human,17,1,1,64,Visual,TB,0.4;0.6;0.8;1;1.2;1.4;1.6,1.2,L,0.4;1.6,1.151,neutral,female,22,9,8,9,14,11,48
human,17,1,1,65,Visual,TB,0.4;0.6;0.8;1;1.2;1.4;1.6,1.2,L,0.4;1.6,0.548,neutral,female,22,9,8,9,14,11,48
human,17,1,1,66,Visual,TB,0.4;0.6;0.8;1;1.2;1.4;1.6,1.2,L,0.4;1.6,0.382,neutral,female,22,9,8,9,14,11,48
human,17,1,1,67,Visual,TB,0.4;0.6;0.8;1;1.2;1.4;1.6,1.2,L,0.4;1.6,1.251,neutral,female,22,9,8,9,14,11,48
human,17,1,1,68,Visual,TB,0.4;0.6;0.8;1;1.2;1.4;1.6,1.2,L,0.4;1.6,0.571,neutral,female,22,9,8,9,14,11,48
human,17,1,1,69,Visual,TB,0.4;0.6;0.8;1;1.2;1.4;1.6,1.2,L,0.4;1.6,1.035,neutral,female,22,9,8,9,14,11,48
human,17,1,1,70,Visual,TB,0.4;0.6;0.8;1;1.2;1.4;1.6,1.2,L,0.4;1.6,1.933,threat,female,22,9,8,9,14,11,48
human,17,1,1,71,Visual,TB,0.4;0.6;0.8;1;1.2;1.4;1.6,1.4,L,0.4;1.6,0.506,threat,female,22,9,8,9,14,11,48
human,17,1,1,72,Visual,TB,0.4;0.6;0.8;1;1.2;1.4;1.6,1.4,L,0.4;1.6,0.61,threat,female,22,9,8,9,14,11,48
human,17,1,1,73,Visual,TB,0.4;0.6;0.8;1;1.2;1.4;1.6,1.4,L,0.4;1.6,0.469,threat,female,22,9,8,9,14,11,48
human,17,1,1,74,Visual,TB,0.4;0.6;0.8;1;1.2;1.4;1.6,1.4,L,0.4;1.6,0.543,threat,female,22,9,8,9,14,11,48
human,17,1,1,75,Visual,TB,0.4;0.6;0.8;1;1.2;1.4;1.6,1.4,S,0.4;1.6,0.996,threat,female,22,9,8,9,14,11,48
human,17,1,1,76,Visual,TB,0.4;0.6;0.8;1;1.2;1.4;1.6,1.4,L,0.4;1.6,0.369,threat,female,22,9,8,9,14,11,48
human,17,1,1,77,Visual,TB,0.4;0.6;0.8;1;1.2;1.4;1.6,1.4,L,0.4;1.6,1.019,threat,female,22,9,8,9,14,11,48
human,17,1,1,78,Visual,TB,0.4;0.6;0.8;1;1.2;1.4;1.6,1.4,L,0.4;1.6,0.617,neutral,female,22,9,8,9,14,11,48
human,17,1,1,79,Visual,TB,0.4;0.6;0.8;1;1.2;1.4;1.6,1.4,L,0.4;1.6,1.221,neutral,female,22,9,8,9,14,11,48
human,17,1,1,80,Visual,TB,0.4;0.6;0.8;1;1.2;1.4;1.6,1.4,L,0.4;1.6,0.463,neutral,female,22,9,8,9,14,11,48
human,17,1,1,81,Visual,TB,0.4;0.6;0.8;1;1.2;1.4;1.6,1.4,L,0.4;1.6,0.748,neutral,female,22,9,8,9,14,11,48
human,17,1,1,82,Visual,TB,0.4;0.6;0.8;1;1.2;1.4;1.6,1.4,L,0.4;1.6,0.498,neutral,female,22,9,8,9,14,11,48
human,17,1,1,83,Visual,TB,0.4;0.6;0.8;1;1.2;1.4;1.6,1.4,L,0.4;1.6,0.468,neutral,female,22,9,8,9,14,11,48
human,17,1,1,84,Visual,TB,0.4;0.6;0.8;1;1.2;1.4;1.6,1.4,L,0.4;1.6,0.477,neutral,female,22,9,8,9,14,11,48
human,17,1,1,85,Visual,TB,0.4;0.6;0.8;1;1.2;1.4;1.6,1.6,L,0.4;1.6,0.52,threat,female,22,9,8,9,14,11,48
human,17,1,1,86,Visual,TB,0.4;0.6;0.8;1;1.2;1.4;1.6,1.6,L,0.4;1.6,0.534,threat,female,22,9,8,9,14,11,48
human,17,1,1,87,Visual,TB,0.4;0.6;0.8;1;1.2;1.4;1.6,1.6,L,0.4;1.6,1.456,threat,female,22,9,8,9,14,11,48
human,17,1,1,88,Visual,TB,0.4;0.6;0.8;1;1.2;1.4;1.6,1.6,L,0.4;1.6,0.611,threat,female,22,9,8,9,14,11,48
human,17,1,1,89,Visual,TB,0.4;0.6;0.8;1;1.2;1.4;1.6,1.6,L,0.4;1.6,0.252,threat,female,22,9,8,9,14,11,48
human,17,1,1,90,Visual,TB,0.4;0.6;0.8;1;1.2;1.4;1.6,1.6,L,0.4;1.6,0.522,neutral,female,22,9,8,9,14,11,48
human,17,1,1,91,Visual,TB,0.4;0.6;0.8;1;1.2;1.4;1.6,1.6,L,0.4;1.6,0.532,neutral,female,22,9,8,9,14,11,48
human,17,1,1,92,Visual,TB,0.4;0.6;0.8;1;1.2;1.4;1.6,1.6,L,0.4;1.6,0.781,neutral,female,22,9,8,9,14,11,48
human,17,1,1,93,Visual,TB,0.4;0.6;0.8;1;1.2;1.4;1.6,1.6,L,0.4;1.6,0.677,neutral,female,22,9,8,9,14,11,48
human,17,1,1,94,Visual,TB,0.4;0.6;0.8;1;1.2;1.4;1.6,1.6,L,0.4;1.6,0.687,neutral,female,22,9,8,9,14,11,48
human,17,1,1,95,Visual,TB,0.4;0.6;0.8;1;1.2;1.4;1.6,1.6,L,0.4;1.6,0.464,neutral,female,22,9,8,9,14,11,48
human,17,1,1,96,Visual,TB,0.4;0.6;0.8;1;1.2;1.4;1.6,1.6,L,0.4;1.6,0.261,neutral,female,22,9,8,9,14,11,48
human,17,1,1,97,Visual,TB,0.4;0.6;0.8;1;1.2;1.4;1.6,1.6,L,0.4;1.6,0.457,threat,female,22,9,8,9,14,11,48
human,17,1,1,98,Visual,TB,0.4;0.6;0.8;1;1.2;1.4;1.6,1.6,L,0.4;1.6,0.46,threat,female,22,9,8,9,14,11,48
human,18,1,1,1,Visual,TB,0.4;0.6;0.8;1;1.2;1.4;1.6,0.4,S,0.4;1.6,0.423,threat,female,22,9,6,8,16,5,44
human,18,1,1,2,Visual,TB,0.4;0.6;0.8;1;1.2;1.4;1.6,0.4,S,0.4;1.6,0.475,threat,female,22,9,6,8,16,5,44
human,18,1,1,3,Visual,TB,0.4;0.6;0.8;1;1.2;1.4;1.6,0.4,S,0.4;1.6,0.434,threat,female,22,9,6,8,16,5,44
human,18,1,1,4,Visual,TB,0.4;0.6;0.8;1;1.2;1.4;1.6,0.4,S,0.4;1.6,0.446,threat,female,22,9,6,8,16,5,44
human,18,1,1,5,Visual,TB,0.4;0.6;0.8;1;1.2;1.4;1.6,0.4,S,0.4;1.6,0.706,threat,female,22,9,6,8,16,5,44
human,18,1,1,6,Visual,TB,0.4;0.6;0.8;1;1.2;1.4;1.6,0.4,S,0.4;1.6,0.469,threat,female,22,9,6,8,16,5,44
human,18,1,1,7,Visual,TB,0.4;0.6;0.8;1;1.2;1.4;1.6,0.4,S,0.4;1.6,0.533,neutral,female,22,9,6,8,16,5,44
human,18,1,1,8,Visual,TB,0.4;0.6;0.8;1;1.2;1.4;1.6,0.4,S,0.4;1.6,0.369,neutral,female,22,9,6,8,16,5,44
human,18,1,1,9,Visual,TB,0.4;0.6;0.8;1;1.2;1.4;1.6,0.4,S,0.4;1.6,0.457,neutral,female,22,9,6,8,16,5,44
human,18,1,1,10,Visual,TB,0.4;0.6;0.8;1;1.2;1.4;1.6,0.4,S,0.4;1.6,0.47,neutral,female,22,9,6,8,16,5,44
human,18,1,1,11,Visual,TB,0.4;0.6;0.8;1;1.2;1.4;1.6,0.4,S,0.4;1.6,0.529,neutral,female,22,9,6,8,16,5,44
human,18,1,1,12,Visual,TB,0.4;0.6;0.8;1;1.2;1.4;1.6,0.4,S,0.4;1.6,0.518,neutral,female,22,9,6,8,16,5,44
human,18,1,1,13,Visual,TB,0.4;0.6;0.8;1;1.2;1.4;1.6,0.4,S,0.4;1.6,0.704,neutral,female,22,9,6,8,16,5,44
human,18,1,1,14,Visual,TB,0.4;0.6;0.8;1;1.2;1.4;1.6,0.4,S,0.4;1.6,0.518,threat,female,22,9,6,8,16,5,44
human,18,1,1,15,Visual,TB,0.4;0.6;0.8;1;1.2;1.4;1.6,0.6,S,0.4;1.6,0.628,threat,female,22,9,6,8,16,5,44
human,18,1,1,16,Visual,TB,0.4;0.6;0.8;1;1.2;1.4;1.6,0.6,S,0.4;1.6,0.54,threat,female,22,9,6,8,16,5,44
human,18,1,1,17,Visual,TB,0.4;0.6;0.8;1;1.2;1.4;1.6,0.6,S,0.4;1.6,0.605,threat,female,22,9,6,8,16,5,44
human,18,1,1,18,Visual,TB,0.4;0.6;0.8;1;1.2;1.4;1.6,0.6,S,0.4;1.6,0.493,threat,female,22,9,6,8,16,5,44
human,18,1,1,19,Visual,TB,0.4;0.6;0.8;1;1.2;1.4;1.6,0.6,S,0.4;1.6,0.534,threat,female,22,9,6,8,16,5,44
human,18,1,1,20,Visual,TB,0.4;0.6;0.8;1;1.2;1.4;1.6,0.6,S,0.4;1.6,0.527,threat,female,22,9,6,8,16,5,44
human,18,1,1,21,Visual,TB,0.4;0.6;0.8;1;1.2;1.4;1.6,0.6,S,0.4;1.6,0.805,neutral,female,22,9,6,8,16,5,44
human,18,1,1,22,Visual,TB,0.4;0.6;0.8;1;1.2;1.4;1.6,0.6,S,0.4;1.6,0.597,neutral,female,22,9,6,8,16,5,44
human,18,1,1,23,Visual,TB,0.4;0.6;0.8;1;1.2;1.4;1.6,0.6,S,0.4;1.6,0.481,neutral,female,22,9,6,8,16,5,44
human,18,1,1,24,Visual,TB,0.4;0.6;0.8;1;1.2;1.4;1.6,0.6,S,0.4;1.6,0.612,neutral,female,22,9,6,8,16,5,44
human,18,1,1,25,Visual,TB,0.4;0.6;0.8;1;1.2;1.4;1.6,0.6,S,0.4;1.6,0.443,neutral,female,22,9,6,8,16,5,44
human,18,1,1,26,Visual,TB,0.4;0.6;0.8;1;1.2;1.4;1.6,0.6,S,0.4;1.6,0.549,neutral,female,22,9,6,8,16,5,44
human,18,1,1,27,Visual,TB,0.4;0.6;0.8;1;1.2;1.4;1.6,0.6,S,0.4;1.6,0.433,neutral,female,22,9,6,8,16,5,44
human,18,1,1,28,Visual,TB,0.4;0.6;0.8;1;1.2;1.4;1.6,0.6,S,0.4;1.6,0.42,threat,female,22,9,6,8,16,5,44
human,18,1,1,29,Visual,TB,0.4;0.6;0.8;1;1.2;1.4;1.6,0.8,S,0.4;1.6,0.666,threat,female,22,9,6,8,16,5,44
human,18,1,1,30,Visual,TB,0.4;0.6;0.8;1;1.2;1.4;1.6,0.8,S,0.4;1.6,0.582,threat,female,22,9,6,8,16,5,44
human,18,1,1,31,Visual,TB,0.4;0.6;0.8;1;1.2;1.4;1.6,0.8,S,0.4;1.6,0.801,threat,female,22,9,6,8,16,5,44
human,18,1,1,32,Visual,TB,0.4;0.6;0.8;1;1.2;1.4;1.6,0.8,S,0.4;1.6,0.887,threat,female,22,9,6,8,16,5,44
human,18,1,1,33,Visual,TB,0.4;0.6;0.8;1;1.2;1.4;1.6,0.8,S,0.4;1.6,0.547,threat,female,22,9,6,8,16,5,44
human,18,1,1,34,Visual,TB,0.4;0.6;0.8;1;1.2;1.4;1.6,0.8,S,0.4;1.6,0.523,threat,female,22,9,6,8,16,5,44
human,18,1,1,35,Visual,TB,0.4;0.6;0.8;1;1.2;1.4;1.6,0.8,S,0.4;1.6,0.589,neutral,female,22,9,6,8,16,5,44
human,18,1,1,36,Visual,TB,0.4;0.6;0.8;1;1.2;1.4;1.6,0.8,S,0.4;1.6,0.412,neutral,female,22,9,6,8,16,5,44
human,18,1,1,37,Visual,TB,0.4;0.6;0.8;1;1.2;1.4;1.6,0.8,S,0.4;1.6,0.549,neutral,female,22,9,6,8,16,5,44
human,18,1,1,38,Visual,TB,0.4;0.6;0.8;1;1.2;1.4;1.6,0.8,S,0.4;1.6,0.485,neutral,female,22,9,6,8,16,5,44
human,18,1,1,39,Visual,TB,0.4;0.6;0.8;1;1.2;1.4;1.6,0.8,S,0.4;1.6,0.698,neutral,female,22,9,6,8,16,5,44
human,18,1,1,40,Visual,TB,0.4;0.6;0.8;1;1.2;1.4;1.6,0.8,S,0.4;1.6,0.481,neutral,female,22,9,6,8,16,5,44
human,18,1,1,41,Visual,TB,0.4;0.6;0.8;1;1.2;1.4;1.6,0.8,S,0.4;1.6,0.461,neutral,female,22,9,6,8,16,5,44
human,18,1,1,42,Visual,TB,0.4;0.6;0.8;1;1.2;1.4;1.6,0.8,S,0.4;1.6,0.661,threat,female,22,9,6,8,16,5,44
human,18,1,1,43,Visual,TB,0.4;0.6;0.8;1;1.2;1.4;1.6,1,S,0.4;1.6,1.227,threat,female,22,9,6,8,16,5,44
human,18,1,1,44,Visual,TB,0.4;0.6;0.8;1;1.2;1.4;1.6,1,L,0.4;1.6,0.488,threat,female,22,9,6,8,16,5,44
human,18,1,1,45,Visual,TB,0.4;0.6;0.8;1;1.2;1.4;1.6,1,L,0.4;1.6,0.942,threat,female,22,9,6,8,16,5,44
human,18,1,1,46,Visual,TB,0.4;0.6;0.8;1;1.2;1.4;1.6,1,S,0.4;1.6,0.829,threat,female,22,9,6,8,16,5,44
human,18,1,1,47,Visual,TB,0.4;0.6;0.8;1;1.2;1.4;1.6,1,S,0.4;1.6,1.308,threat,female,22,9,6,8,16,5,44
human,18,1,1,48,Visual,TB,0.4;0.6;0.8;1;1.2;1.4;1.6,1,S,0.4;1.6,0.496,threat,female,22,9,6,8,16,5,44
human,18,1,1,49,Visual,TB,0.4;0.6;0.8;1;1.2;1.4;1.6,1,L,0.4;1.6,0.508,neutral,female,22,9,6,8,16,5,44
human,18,1,1,50,Visual,TB,0.4;0.6;0.8;1;1.2;1.4;1.6,1,S,0.4;1.6,0.482,neutral,female,22,9,6,8,16,5,44
human,18,1,1,51,Visual,TB,0.4;0.6;0.8;1;1.2;1.4;1.6,1,L,0.4;1.6,0.45,neutral,female,22,9,6,8,16,5,44
human,18,1,1,52,Visual,TB,0.4;0.6;0.8;1;1.2;1.4;1.6,1,L,0.4;1.6,0.327,neutral,female,22,9,6,8,16,5,44
human,18,1,1,53,Visual,TB,0.4;0.6;0.8;1;1.2;1.4;1.6,1,L,0.4;1.6,0.761,neutral,female,22,9,6,8,16,5,44
human,18,1,1,54,Visual,TB,0.4;0.6;0.8;1;1.2;1.4;1.6,1,S,0.4;1.6,0.772,neutral,female,22,9,6,8,16,5,44
human,18,1,1,55,Visual,TB,0.4;0.6;0.8;1;1.2;1.4;1.6,1,L,0.4;1.6,0.343,neutral,female,22,9,6,8,16,5,44
human,18,1,1,56,Visual,TB,0.4;0.6;0.8;1;1.2;1.4;1.6,1,S,0.4;1.6,0.402,threat,female,22,9,6,8,16,5,44
human,18,1,1,57,Visual,TB,0.4;0.6;0.8;1;1.2;1.4;1.6,1.2,S,0.4;1.6,0.658,threat,female,22,9,6,8,16,5,44
human,18,1,1,58,Visual,TB,0.4;0.6;0.8;1;1.2;1.4;1.6,1.2,L,0.4;1.6,0.607,threat,female,22,9,6,8,16,5,44
human,18,1,1,59,Visual,TB,0.4;0.6;0.8;1;1.2;1.4;1.6,1.2,L,0.4;1.6,0.982,threat,female,22,9,6,8,16,5,44
human,18,1,1,60,Visual,TB,0.4;0.6;0.8;1;1.2;1.4;1.6,1.2,S,0.4;1.6,1.25,threat,female,22,9,6,8,16,5,44
human,18,1,1,61,Visual,TB,0.4;0.6;0.8;1;1.2;1.4;1.6,1.2,L,0.4;1.6,0.617,threat,female,22,9,6,8,16,5,44
human,18,1,1,62,Visual,TB,0.4;0.6;0.8;1;1.2;1.4;1.6,1.2,L,0.4;1.6,0.743,threat,female,22,9,6,8,16,5,44
